,Unnamed: 36,Unnamed: 37,color,cond,cueType,date,distrFinger,distrIndex,expName,frameRate,hand,inputDevice,jitter,keyBreak.keys,keyBreak.rt,key_resp_2.keys,key_resp_2.rt,number,participant,respFinger,rt_left,rt_right,rt_up,task2,trial,trialDurationSec,trialsExpBigLoop.thisIndex,trialsExpBigLoop.thisN,trialsExpBigLoop.thisRepN,trialsExpBigLoop.thisTrial,trialsExpBigLoop.thisTrialN,trialsExpSmallLoop.thisIndex,trialsExpSmallLoop.thisN,trialsExpSmallLoop.thisRepN,trialsExpSmallLoop.thisTrialN,trialsPractice.thisIndex,trialsPractice.thisN,trialsPractice.thisRepN,trialsPractice.thisTrialN
0,,,n,irrelevant,numbers,2017_Jun_18_1026,ring,b,ilya_ring_1task_long,119.94192761299999,r,keyboard,1096.81038836,,,,,2.0,10,middle,0.0,0.0,2347.49100481,none,,2.94751545483,,,,,,,,,,6.0,0.0,0.0,0.0
1,,,n,compatible,numbers,2017_Jun_18_1026,index,i,ilya_ring_1task_long,119.94192761299999,r,keyboard,713.455962511,,,,,1.0,10,index,1674.49681244,0.0,0.0,none,,2.5496592089099996,,,,,,,,,,0.0,1.0,0.0,1.0
2,,,n,baseline,numbers,2017_Jun_18_1026,none,0,ilya_ring_1task_long,119.94192761299999,r,keyboard,205.944064937,,,,,1.0,10,index,1332.72983024,0.0,0.0,none,,2.05775609138,,,,,,,,,,3.0,2.0,0.0,2.0
3,,,n,irrelevant,numbers,2017_Jun_18_1026,ring,b,ilya_ring_1task_long,119.94192761299999,r,keyboard,271.605909915,,,,,1.0,10,index,1324.58525513,0.0,0.0,none,,2.12460396996,,,,,,,,,,2.0,3.0,0.0,3.0
4,,,n,compatible,numbers,2017_Jun_18_1026,middle,m,ilya_ring_1task_long,119.94192761299999,r,keyboard,149.371562455,,,,,2.0,10,middle,0.0,0.0,1191.16961677,none,,1.99119889643,,,,,,,,,,5.0,4.0,0.0,4.0
5,,,n,baseline,numbers,2017_Jun_18_1026,none,0,ilya_ring_1task_long,119.94192761299999,r,keyboard,199.079354365,,,,,2.0,10,middle,0.0,0.0,1199.90431286,none,,2.04123783536,,,,,,,,,,7.0,5.0,0.0,5.0
6,,,n,incompatible,numbers,2017_Jun_18_1026,index,i,ilya_ring_1task_long,119.94192761299999,r,keyboard,273.206261161,,,,,2.0,10,middle,0.0,0.0,1249.50949023,none,,2.1245517495299997,,,,,,,,,,4.0,6.0,0.0,6.0
7,,,n,incompatible,numbers,2017_Jun_18_1026,middle,m,ilya_ring_1task_long,119.94192761299999,r,keyboard,109.02118504,,,,,1.0,10,index,1057.64259496,0.0,0.0,none,,1.9493141918799999,,,,,,,,,,1.0,7.0,0.0,7.0
8,,,,,,2017_Jun_18_1026,,,ilya_ring_1task_long,119.94192761299999,r,,,,,space,2.76685301007,,10,,,,,,,,,,,,,,,,,,,,
9,,,n,incompatible,numbers,2017_Jun_18_1026,index,i,ilya_ring_1task_long,119.94192761299999,r,keyboard,51.4984005251,,,,,2.0,10,middle,0.0,0.0,1000.59283765,none,1.0,1.90063690807,0.0,0.0,0.0,,0.0,4.0,0.0,0.0,0.0,,,,
10,,,n,baseline,numbers,2017_Jun_18_1026,none,0,ilya_ring_1task_long,119.94192761299999,r,keyboard,189.65204173799998,,,,,1.0,10,index,999.4663253719999,0.0,0.0,none,2.0,2.03287321002,0.0,0.0,0.0,,0.0,3.0,1.0,0.0,1.0,,,,
11,,,n,compatible,numbers,2017_Jun_18_1026,middle,m,ilya_ring_1task_long,119.94192761299999,r,keyboard,204.058623496,,,,,2.0,10,middle,0.0,0.0,999.3887493660001,none,3.0,2.04942527348,0.0,0.0,0.0,,0.0,5.0,2.0,0.0,2.0,,,,
12,,,n,compatible,numbers,2017_Jun_18_1026,index,i,ilya_ring_1task_long,119.94192761299999,r,keyboard,3.8853589517300002,,,,,1.0,10,index,924.402030862,0.0,0.0,none,4.0,1.84945485499,0.0,0.0,0.0,,0.0,0.0,3.0,0.0,3.0,,,,
13,,,n,irrelevant,numbers,2017_Jun_18_1026,ring,b,ilya_ring_1task_long,119.94192761299999,r,keyboard,20.978064911700002,,,,,1.0,10,index,1024.38995677,0.0,0.0,none,5.0,1.87439629567,0.0,0.0,0.0,,0.0,2.0,4.0,0.0,4.0,,,,
14,,,n,incompatible,numbers,2017_Jun_18_1026,middle,m,ilya_ring_1task_long,119.94192761299999,r,keyboard,866.6403694210001,,,,,1.0,10,index,1882.97221753,0.0,0.0,none,6.0,2.70788045447,0.0,0.0,0.0,,0.0,1.0,5.0,0.0,5.0,,,,
15,,,n,irrelevant,numbers,2017_Jun_18_1026,ring,b,ilya_ring_1task_long,119.94192761299999,r,keyboard,222.03954833,,,,,2.0,10,middle,0.0,0.0,1074.61453479,none,7.0,2.0745393736,0.0,0.0,0.0,,0.0,6.0,6.0,0.0,6.0,,,,
16,,,n,baseline,numbers,2017_Jun_18_1026,none,0,ilya_ring_1task_long,119.94192761299999,r,keyboard,636.531593329,,,,,2.0,10,middle,0.0,0.0,1574.36761971,none,8.0,2.47438301417,0.0,0.0,0.0,,0.0,7.0,7.0,0.0,7.0,,,,
17,,,n,baseline,numbers,2017_Jun_18_1026,none,0,ilya_ring_1task_long,119.94192761299999,r,keyboard,99.93421469389999,,,,,2.0,10,middle,0.0,0.0,1074.54510879,none,9.0,1.9498536016999999,0.0,0.0,0.0,,0.0,7.0,8.0,1.0,0.0,,,,
18,,,n,compatible,numbers,2017_Jun_18_1026,index,i,ilya_ring_1task_long,119.94192761299999,r,keyboard,290.921428272,,,,,1.0,10,index,1257.41379102,0.0,0.0,none,10.0,2.14910380092,0.0,0.0,0.0,,0.0,0.0,9.0,1.0,1.0,,,,
19,,,n,incompatible,numbers,2017_Jun_18_1026,middle,m,ilya_ring_1task_long,119.94192761299999,r,keyboard,173.45482494400002,,,,,1.0,10,index,1457.86988964,0.0,1107.90731931,none,11.0,2.0078913211500002,0.0,0.0,0.0,,0.0,1.0,10.0,1.0,2.0,,,,
20,,,n,irrelevant,numbers,2017_Jun_18_1026,ring,b,ilya_ring_1task_long,119.94192761299999,r,keyboard,29.5806315583,,,,,1.0,10,index,999.507075415,0.0,0.0,none,12.0,1.87450556615,0.0,0.0,0.0,,0.0,2.0,11.0,1.0,3.0,,,,
21,,,n,irrelevant,numbers,2017_Jun_18_1026,ring,b,ilya_ring_1task_long,119.94192761299999,r,keyboard,281.606290555,,,,,2.0,10,middle,0.0,0.0,1249.40233271,none,13.0,2.12446179759,0.0,0.0,0.0,,0.0,6.0,12.0,1.0,4.0,,,,
22,,,n,baseline,numbers,2017_Jun_18_1026,none,0,ilya_ring_1task_long,119.94192761299999,r,keyboard,553.314387156,,,,,1.0,10,index,1507.78506918,0.0,0.0,none,14.0,2.39950858468,0.0,0.0,0.0,,0.0,3.0,13.0,1.0,5.0,,,,
23,,,n,compatible,numbers,2017_Jun_18_1026,middle,m,ilya_ring_1task_long,119.94192761299999,r,keyboard,170.939591898,,,,,2.0,10,middle,0.0,0.0,1165.75668301,none,15.0,2.01569419961,0.0,0.0,0.0,,0.0,5.0,14.0,1.0,6.0,,,,
24,,,n,incompatible,numbers,2017_Jun_18_1026,index,i,ilya_ring_1task_long,119.94192761299999,r,keyboard,126.45628188200001,,,,,2.0,10,middle,0.0,0.0,1191.14516674,none,16.0,1.9661415445200001,0.0,0.0,0.0,,0.0,4.0,15.0,1.0,7.0,,,,
25,,,n,baseline,numbers,2017_Jun_18_1026,none,0,ilya_ring_1task_long,119.94192761299999,r,keyboard,781.51192662,,,,,1.0,10,index,1674.35675304,0.0,0.0,none,17.0,2.6243721475,0.0,0.0,0.0,,0.0,3.0,16.0,2.0,0.0,,,,
26,,,n,compatible,numbers,2017_Jun_18_1026,middle,m,ilya_ring_1task_long,119.94192761299999,r,keyboard,171.27711448600002,,,,,2.0,10,middle,0.0,0.0,1057.69089131,none,18.0,2.00774431914,0.0,0.0,0.0,,0.0,5.0,17.0,2.0,1.0,,,,
27,,,n,compatible,numbers,2017_Jun_18_1026,index,i,ilya_ring_1task_long,119.94192761299999,r,keyboard,1033.29234743,,,,,1.0,10,index,1999.48836058,0.0,1899.47085315,none,19.0,2.8745285069200004,0.0,0.0,0.0,,0.0,0.0,18.0,2.0,2.0,,,,
28,,,n,irrelevant,numbers,2017_Jun_18_1026,ring,b,ilya_ring_1task_long,119.94192761299999,r,keyboard,42.185328786599996,,,,,1.0,10,index,957.7446209939999,0.0,0.0,none,20.0,1.89116116491,0.0,0.0,0.0,,0.0,2.0,19.0,2.0,3.0,,,,
29,,,n,incompatible,numbers,2017_Jun_18_1026,index,i,ilya_ring_1task_long,119.94192761299999,r,keyboard,223.750368342,,,,,2.0,10,middle,0.0,0.0,1099.42617903,none,21.0,2.07449892541,0.0,0.0,0.0,,0.0,4.0,20.0,2.0,4.0,,,,
30,,,n,irrelevant,numbers,2017_Jun_18_1026,ring,b,ilya_ring_1task_long,119.94192761299999,r,keyboard,728.6851099539999,,,,,2.0,10,middle,0.0,0.0,1524.43976238,none,22.0,2.5744651179599995,0.0,0.0,0.0,,0.0,6.0,21.0,2.0,5.0,,,,
31,,,n,incompatible,numbers,2017_Jun_18_1026,middle,m,ilya_ring_1task_long,119.94192761299999,r,keyboard,226.539700716,,,,,1.0,10,index,1149.47417353,0.0,0.0,none,23.0,2.07452760136,0.0,0.0,0.0,,0.0,1.0,22.0,2.0,6.0,,,,
32,,,n,baseline,numbers,2017_Jun_18_1026,none,0,ilya_ring_1task_long,119.94192761299999,r,keyboard,591.194357629,,,,,2.0,10,middle,0.0,0.0,1524.46753278,none,24.0,2.43282098959,0.0,0.0,0.0,,0.0,7.0,23.0,2.0,7.0,,,,
33,,,n,compatible,numbers,2017_Jun_18_1026,middle,m,ilya_ring_1task_long,119.94192761299999,r,keyboard,97.78604355110001,,,,,2.0,10,middle,0.0,0.0,1023.83062471,none,25.0,1.9322018908,0.0,0.0,0.0,,0.0,5.0,24.0,3.0,0.0,,,,
34,,,n,incompatible,numbers,2017_Jun_18_1026,middle,m,ilya_ring_1task_long,119.94192761299999,r,keyboard,331.821890624,,,,,1.0,10,index,1282.78114511,0.0,0.0,none,26.0,2.1828276303400003,0.0,0.0,0.0,,0.0,1.0,25.0,3.0,1.0,,,,
35,,,n,irrelevant,numbers,2017_Jun_18_1026,ring,b,ilya_ring_1task_long,119.94192761299999,r,keyboard,199.80701909099997,,,,,2.0,10,middle,0.0,0.0,1124.44187535,none,27.0,2.0494817198299997,0.0,0.0,0.0,,0.0,6.0,26.0,3.0,2.0,,,,
36,,,n,compatible,numbers,2017_Jun_18_1026,index,i,ilya_ring_1task_long,119.94192761299999,r,keyboard,909.397345556,,,,,1.0,10,index,1832.85177851,0.0,0.0,none,28.0,2.7578560044400002,0.0,0.0,0.0,,0.0,0.0,27.0,3.0,3.0,,,,
37,,,n,irrelevant,numbers,2017_Jun_18_1026,ring,b,ilya_ring_1task_long,119.94192761299999,r,keyboard,753.5362562260001,,,,,1.0,10,index,1674.35071599,0.0,0.0,none,29.0,2.6077551858200003,0.0,0.0,0.0,,0.0,2.0,28.0,3.0,4.0,,,,
38,,,n,baseline,numbers,2017_Jun_18_1026,none,0,ilya_ring_1task_long,119.94192761299999,r,keyboard,9.174591969269999,,,,,1.0,10,index,974.346188211,0.0,0.0,none,30.0,1.85770809688,0.0,0.0,0.0,,0.0,3.0,29.0,3.0,5.0,,,,
39,,,n,incompatible,numbers,2017_Jun_18_1026,index,i,ilya_ring_1task_long,119.94192761299999,r,keyboard,125.18273857,,,,,2.0,10,middle,0.0,0.0,1116.00239067,none,31.0,1.97436067711,0.0,0.0,0.0,,0.0,4.0,30.0,3.0,6.0,,,,
40,,,n,baseline,numbers,2017_Jun_18_1026,none,0,ilya_ring_1task_long,119.94192761299999,r,keyboard,655.745705371,,,,,2.0,10,middle,0.0,0.0,1574.41169013,none,32.0,2.4995143198700003,0.0,0.0,0.0,,0.0,7.0,31.0,3.0,7.0,,,,
41,,,n,irrelevant,numbers,2017_Jun_18_1026,ring,b,ilya_ring_1task_long,119.94192761299999,r,keyboard,55.2465888308,,,,,2.0,10,middle,0.0,0.0,949.267404796,none,33.0,1.8993344159799999,0.0,0.0,0.0,,0.0,6.0,32.0,4.0,0.0,,,,
42,,,n,incompatible,numbers,2017_Jun_18_1026,index,i,ilya_ring_1task_long,119.94192761299999,r,keyboard,218.90820355099999,,,,,2.0,10,middle,0.0,0.0,1257.71654874,none,34.0,2.0744352346,0.0,0.0,0.0,,0.0,4.0,33.0,4.0,1.0,,,,
43,,,n,irrelevant,numbers,2017_Jun_18_1026,ring,b,ilya_ring_1task_long,119.94192761299999,r,keyboard,8.26424946537,,,,,1.0,10,index,1057.709908,0.0,0.0,none,35.0,1.85771503948,0.0,0.0,0.0,,0.0,2.0,34.0,4.0,2.0,,,,
44,,,n,baseline,numbers,2017_Jun_18_1026,none,0,ilya_ring_1task_long,119.94192761299999,r,keyboard,76.49487504140001,,,,,1.0,10,index,1116.15422231,0.0,0.0,none,36.0,1.91621519645,0.0,0.0,0.0,,0.0,3.0,35.0,4.0,3.0,,,,
45,,,n,compatible,numbers,2017_Jun_18_1026,index,i,ilya_ring_1task_long,119.94192761299999,r,keyboard,478.83095036300006,,,,,1.0,10,index,1366.16508899,0.0,0.0,none,37.0,2.3244624013,0.0,0.0,0.0,,0.0,0.0,36.0,4.0,4.0,,,,
46,,,n,incompatible,numbers,2017_Jun_18_1026,middle,m,ilya_ring_1task_long,119.94192761299999,r,keyboard,222.96095317700002,,,,,1.0,10,index,1124.40927531,0.0,0.0,none,38.0,2.06612313154,0.0,0.0,0.0,,0.0,1.0,37.0,4.0,5.0,,,,
47,,,n,compatible,numbers,2017_Jun_18_1026,middle,m,ilya_ring_1task_long,119.94192761299999,r,keyboard,170.013125118,,,,,2.0,10,middle,0.0,0.0,1149.48262539,none,39.0,2.0161925575299997,0.0,0.0,0.0,,0.0,5.0,38.0,4.0,6.0,,,,
48,,,n,baseline,numbers,2017_Jun_18_1026,none,0,ilya_ring_1task_long,119.94192761299999,r,keyboard,179.43337930099997,,,,,2.0,10,middle,0.0,0.0,1082.72077467,none,40.0,2.03277088213,0.0,0.0,0.0,,0.0,7.0,39.0,4.0,7.0,,,,
49,,,n,irrelevant,numbers,2017_Jun_18_1026,ring,b,ilya_ring_1task_long,119.94192761299999,r,keyboard,553.7887758080001,,,,,2.0,10,middle,0.0,0.0,1391.02714255,none,41.0,2.39106789259,0.0,0.0,0.0,,0.0,6.0,40.0,5.0,0.0,,,,
50,,,n,compatible,numbers,2017_Jun_18_1026,middle,m,ilya_ring_1task_long,119.94192761299999,r,keyboard,1763.71314758,,,,,2.0,10,middle,0.0,0.0,2599.37818454,none,42.0,3.60775307286,0.0,0.0,0.0,,0.0,5.0,41.0,5.0,1.0,,,,
51,,,n,irrelevant,numbers,2017_Jun_18_1026,ring,b,ilya_ring_1task_long,119.94192761299999,r,keyboard,90.1672750292,,,,,1.0,10,index,1132.74643211,0.0,0.0,none,43.0,1.9328599285199999,0.0,0.0,0.0,,0.0,2.0,42.0,5.0,2.0,,,,
52,,,n,baseline,numbers,2017_Jun_18_1026,none,0,ilya_ring_1task_long,119.94192761299999,r,keyboard,2000.0,,,,,2.0,10,middle,0.0,0.0,2941.05310183,none,44.0,3.84102563329,0.0,0.0,0.0,,0.0,7.0,43.0,5.0,3.0,,,,
53,,,n,incompatible,numbers,2017_Jun_18_1026,index,i,ilya_ring_1task_long,119.94192761299999,r,keyboard,168.004284383,,,,,2.0,10,middle,0.0,0.0,1115.91907947,none,45.0,2.01594383135,0.0,0.0,0.0,,0.0,4.0,44.0,5.0,4.0,,,,
54,,,n,baseline,numbers,2017_Jun_18_1026,none,0,ilya_ring_1task_long,119.94192761299999,r,keyboard,37.256720044,,,,,1.0,10,index,1066.04404627,0.0,0.0,none,46.0,1.8827062857700003,0.0,0.0,0.0,,0.0,3.0,45.0,5.0,5.0,,,,
55,,,n,compatible,numbers,2017_Jun_18_1026,index,i,ilya_ring_1task_long,119.94192761299999,r,keyboard,300.415456781,,,,,1.0,10,index,1299.46783463,0.0,0.0,none,47.0,2.1577805413999998,0.0,0.0,0.0,,0.0,0.0,46.0,5.0,6.0,,,,
56,,,n,incompatible,numbers,2017_Jun_18_1026,middle,m,ilya_ring_1task_long,119.94192761299999,r,keyboard,247.447623075,,,,,1.0,10,index,1224.46059018,0.0,0.0,none,48.0,2.0995276013599997,0.0,0.0,0.0,,0.0,1.0,47.0,5.0,7.0,,,,
57,,,n,irrelevant,numbers,2017_Jun_18_1026,ring,b,ilya_ring_1task_long,119.94192761299999,r,keyboard,81.8946816117,,,,,2.0,10,middle,0.0,0.0,974.454553138,none,49.0,1.9246525681599997,0.0,0.0,0.0,,0.0,6.0,48.0,6.0,0.0,,,,
58,,,n,compatible,numbers,2017_Jun_18_1026,index,i,ilya_ring_1task_long,119.94192761299999,r,keyboard,234.56005144,,,,,1.0,10,index,1232.30995388,0.0,0.0,none,50.0,2.09076272005,0.0,0.0,0.0,,0.0,0.0,49.0,6.0,1.0,,,,
59,,,n,baseline,numbers,2017_Jun_18_1026,none,0,ilya_ring_1task_long,119.94192761299999,r,keyboard,14.290150606,,,,,2.0,10,middle,0.0,0.0,1007.21970008,none,51.0,1.84888314699,0.0,0.0,0.0,,0.0,7.0,50.0,6.0,2.0,,,,
60,,,n,incompatible,numbers,2017_Jun_18_1026,index,i,ilya_ring_1task_long,119.94192761299999,r,keyboard,616.982324061,,,,,2.0,10,middle,0.0,0.0,1507.74733766,none,52.0,2.45776725991,0.0,0.0,0.0,,0.0,4.0,51.0,6.0,3.0,,,,
61,,,n,baseline,numbers,2017_Jun_18_1026,none,0,ilya_ring_1task_long,119.94192761299999,r,keyboard,643.4036816180001,,,,,1.0,10,index,1681.8743811999998,0.0,0.0,none,53.0,2.4818610997099997,0.0,0.0,0.0,,0.0,3.0,52.0,6.0,4.0,,,,
62,,,n,incompatible,numbers,2017_Jun_18_1026,middle,m,ilya_ring_1task_long,119.94192761299999,r,keyboard,267.68372125400003,,,,,1.0,10,index,1224.52126247,0.0,0.0,none,54.0,2.10790309338,0.0,0.0,0.0,,0.0,1.0,53.0,6.0,5.0,,,,
63,,,n,compatible,numbers,2017_Jun_18_1026,middle,m,ilya_ring_1task_long,119.94192761299999,r,keyboard,392.89571546300004,,,,,2.0,10,middle,0.0,0.0,1257.60516529,none,55.0,2.2326087875200002,0.0,0.0,0.0,,0.0,5.0,54.0,6.0,6.0,,,,
64,,,n,irrelevant,numbers,2017_Jun_18_1026,ring,b,ilya_ring_1task_long,119.94192761299999,r,keyboard,61.1613207451,,,,,1.0,10,index,1024.63113665,0.0,0.0,none,56.0,1.89950949023,0.0,0.0,0.0,,0.0,2.0,55.0,6.0,7.0,,,,
65,,,n,irrelevant,numbers,2017_Jun_18_1026,ring,b,ilya_ring_1task_long,119.94192761299999,r,keyboard,228.56567189900002,,,,,2.0,10,middle,0.0,0.0,1157.72198208,none,57.0,2.08270447466,0.0,0.0,0.0,,0.0,6.0,56.0,7.0,0.0,,,,
66,,,n,irrelevant,numbers,2017_Jun_18_1026,ring,b,ilya_ring_1task_long,119.94192761299999,r,keyboard,284.039111747,,,,,1.0,10,index,1232.81012291,0.0,0.0,none,58.0,2.1328484581400002,0.0,0.0,0.0,,0.0,2.0,57.0,7.0,1.0,,,,
67,,,n,baseline,numbers,2017_Jun_18_1026,none,0,ilya_ring_1task_long,119.94192761299999,r,keyboard,391.086120068,,,,,2.0,10,middle,0.0,0.0,1366.07966482,none,59.0,2.24127254836,0.0,0.0,0.0,,0.0,7.0,58.0,7.0,2.0,,,,
68,,,n,baseline,numbers,2017_Jun_18_1026,none,0,ilya_ring_1task_long,119.94192761299999,r,keyboard,584.887651299,,,,,1.0,10,index,1507.67066721,0.0,0.0,none,60.0,2.4326407838499997,0.0,0.0,0.0,,0.0,3.0,59.0,7.0,3.0,,,,
69,,,n,compatible,numbers,2017_Jun_18_1026,middle,m,ilya_ring_1task_long,119.94192761299999,r,keyboard,339.95763032400004,,,,,2.0,10,middle,0.0,0.0,1224.24627514,none,61.0,2.17472682379,0.0,0.0,0.0,,0.0,5.0,60.0,7.0,4.0,,,,
70,,,n,compatible,numbers,2017_Jun_18_1026,index,i,ilya_ring_1task_long,119.94192761299999,r,keyboard,58.9719269447,,,,,1.0,10,index,965.7041607310001,0.0,0.0,none,62.0,1.9157207626,0.0,0.0,0.0,,0.0,0.0,61.0,7.0,5.0,,,,
71,,,n,incompatible,numbers,2017_Jun_18_1026,middle,m,ilya_ring_1task_long,119.94192761299999,r,keyboard,57.760497289700005,,,,,1.0,10,index,1066.13460192,0.0,0.0,none,63.0,1.9079036970900003,0.0,0.0,0.0,,0.0,1.0,62.0,7.0,6.0,,,,
72,,,n,incompatible,numbers,2017_Jun_18_1026,index,i,ilya_ring_1task_long,119.94192761299999,r,keyboard,264.073223146,,,,,2.0,10,middle,0.0,0.0,1199.40203086,none,64.0,2.09943614016,0.0,0.0,0.0,,0.0,4.0,63.0,7.0,7.0,,,,
73,,,n,compatible,numbers,2017_Jun_18_1026,middle,m,ilya_ring_1task_long,119.94192761299999,r,keyboard,506.057488191,,,,,2.0,10,middle,0.0,0.0,1474.34769747,none,65.0,2.34938210862,0.0,0.0,0.0,,0.0,5.0,64.0,8.0,0.0,,,,
74,,,n,compatible,numbers,2017_Jun_18_1026,index,i,ilya_ring_1task_long,119.94192761299999,r,keyboard,346.40690546300004,,,,,1.0,10,index,1282.80891551,0.0,0.0,none,66.0,2.18301055275,0.0,0.0,0.0,,0.0,0.0,65.0,8.0,1.0,,,,
75,,,n,irrelevant,numbers,2017_Jun_18_1026,ring,b,ilya_ring_1task_long,119.94192761299999,r,keyboard,1.1223805582600002,,,,,1.0,10,index,974.247482553,0.0,0.0,none,67.0,1.85758856342,0.0,0.0,0.0,,0.0,2.0,66.0,8.0,2.0,,,,
76,,,n,incompatible,numbers,2017_Jun_18_1026,index,i,ilya_ring_1task_long,119.94192761299999,r,keyboard,156.952578385,,,,,2.0,10,middle,0.0,0.0,1374.45636425,none,68.0,1.9994729661200001,0.0,0.0,0.0,,0.0,4.0,67.0,8.0,3.0,,,,
77,,,n,baseline,numbers,2017_Jun_18_1026,none,0,ilya_ring_1task_long,119.94192761299999,r,keyboard,145.609756525,,,,,1.0,10,index,1049.40867161,0.0,0.0,none,69.0,1.98278386178,0.0,0.0,0.0,,0.0,3.0,68.0,8.0,4.0,,,,
78,,,n,irrelevant,numbers,2017_Jun_18_1026,ring,b,ilya_ring_1task_long,119.94192761299999,r,keyboard,514.089514271,,,,,2.0,10,middle,0.0,0.0,1432.93358045,none,70.0,2.34952518655,0.0,0.0,0.0,,0.0,6.0,69.0,8.0,5.0,,,,
79,,,n,incompatible,numbers,2017_Jun_18_1026,middle,m,ilya_ring_1task_long,119.94192761299999,r,keyboard,58.1994974001,,,,,1.0,10,index,1082.68636353,0.0,0.0,none,71.0,1.90767428944,0.0,0.0,0.0,,0.0,1.0,70.0,8.0,6.0,,,,
80,,,n,baseline,numbers,2017_Jun_18_1026,none,0,ilya_ring_1task_long,119.94192761299999,r,keyboard,355.31453513,,,,,2.0,10,middle,0.0,0.0,1249.49319021,none,72.0,2.20783215812,0.0,0.0,0.0,,0.0,7.0,71.0,8.0,7.0,,,,
81,,,n,compatible,numbers,2017_Jun_18_1026,middle,m,ilya_ring_1task_long,119.94192761299999,r,keyboard,20.1143534723,,,,,2.0,10,middle,0.0,0.0,932.8345729389999,none,73.0,1.85784513777,0.0,0.0,0.0,,0.0,5.0,72.0,9.0,0.0,,,,
82,,,n,baseline,numbers,2017_Jun_18_1026,none,0,ilya_ring_1task_long,119.94192761299999,r,keyboard,172.684523285,,,,,2.0,10,middle,0.0,0.0,1099.22333438,none,74.0,2.0242501992200004,0.0,0.0,0.0,,0.0,7.0,73.0,9.0,1.0,,,,
83,,,n,baseline,numbers,2017_Jun_18_1026,none,0,ilya_ring_1task_long,119.94192761299999,r,keyboard,25.908537476,,,,,1.0,10,index,1024.49983096,0.0,0.0,none,75.0,1.87456563473,0.0,0.0,0.0,,0.0,3.0,74.0,9.0,2.0,,,,
84,,,n,irrelevant,numbers,2017_Jun_18_1026,ring,b,ilya_ring_1task_long,119.94192761299999,r,keyboard,1127.60825353,,,,,1.0,10,index,2149.40384197,0.0,0.0,none,76.0,2.9743860327,0.0,0.0,0.0,,0.0,2.0,75.0,9.0,3.0,,,,
85,,,n,incompatible,numbers,2017_Jun_18_1026,middle,m,ilya_ring_1task_long,119.94192761299999,r,keyboard,442.81198754,,,,,1.0,10,index,1374.50918838,0.0,0.0,none,77.0,2.28287894521,0.0,0.0,0.0,,0.0,1.0,76.0,9.0,4.0,,,,
86,,,n,compatible,numbers,2017_Jun_18_1026,index,i,ilya_ring_1task_long,119.94192761299999,r,keyboard,63.0992798976,,,,,1.0,10,index,1024.33441598,0.0,0.0,none,78.0,1.8997062978400001,0.0,0.0,0.0,,0.0,0.0,77.0,9.0,5.0,,,,
87,,,n,irrelevant,numbers,2017_Jun_18_1026,ring,b,ilya_ring_1task_long,119.94192761299999,r,keyboard,8.06608808781,,,,,2.0,10,middle,0.0,0.0,849.1424380000001,none,79.0,1.8491904324900001,0.0,0.0,0.0,,0.0,6.0,78.0,9.0,6.0,,,,
88,,,n,incompatible,numbers,2017_Jun_18_1026,index,i,ilya_ring_1task_long,119.94192761299999,r,keyboard,930.4379126919999,,,,,2.0,10,middle,0.0,0.0,1807.78506919,none,80.0,2.76613369636,0.0,0.0,0.0,,0.0,4.0,79.0,9.0,7.0,,,,
89,,,,,,2017_Jun_18_1026,,,ilya_ring_1task_long,119.94192761299999,r,,,space,3.1254168578400003,,,,10,,,,,,,,0.0,0.0,0.0,,0.0,,,,,,,,
90,,,n,compatible,numbers,2017_Jun_18_1026,middle,m,ilya_ring_1task_long,119.94192761299999,r,keyboard,4.447631147180001,,,,,2.0,10,middle,0.0,0.0,875.4678708560001,none,81.0,1.8505252227700002,0.0,1.0,1.0,,0.0,5.0,0.0,0.0,0.0,,,,
91,,,n,irrelevant,numbers,2017_Jun_18_1026,ring,b,ilya_ring_1task_long,119.94192761299999,r,keyboard,81.961031605,,,,,1.0,10,index,1149.4352345999998,0.0,0.0,none,82.0,1.9244995291099998,0.0,1.0,1.0,,0.0,2.0,1.0,0.0,1.0,,,,
92,,,n,irrelevant,numbers,2017_Jun_18_1026,ring,b,ilya_ring_1task_long,119.94192761299999,r,keyboard,606.058893464,,,,,2.0,10,middle,0.0,0.0,1424.40897346,none,83.0,2.44940082345,0.0,1.0,1.0,,0.0,6.0,2.0,0.0,2.0,,,,
93,,,n,incompatible,numbers,2017_Jun_18_1026,index,i,ilya_ring_1task_long,119.94192761299999,r,keyboard,227.052831713,,,,,2.0,10,middle,0.0,0.0,1124.38693825,none,84.0,2.07441229383,0.0,1.0,1.0,,0.0,4.0,3.0,0.0,3.0,,,,
94,,,n,incompatible,numbers,2017_Jun_18_1026,middle,m,ilya_ring_1task_long,119.94192761299999,r,keyboard,424.12210313099996,,,,,1.0,10,index,1416.17112603,0.0,0.0,none,85.0,2.28280800995,0.0,1.0,1.0,,0.0,1.0,4.0,0.0,4.0,,,,
95,,,n,baseline,numbers,2017_Jun_18_1026,none,0,ilya_ring_1task_long,119.94192761299999,r,keyboard,536.28815446,,,,,2.0,10,middle,0.0,0.0,1474.44821424,none,86.0,2.3745221680200004,0.0,1.0,1.0,,0.0,7.0,5.0,0.0,5.0,,,,
96,,,n,compatible,numbers,2017_Jun_18_1026,index,i,ilya_ring_1task_long,119.94192761299999,r,keyboard,58.8243481397,,,,,1.0,10,index,1099.37124194,0.0,0.0,none,87.0,1.89938693825,0.0,1.0,1.0,,0.0,0.0,6.0,0.0,6.0,,,,
97,,,n,baseline,numbers,2017_Jun_18_1026,none,0,ilya_ring_1task_long,119.94192761299999,r,keyboard,262.881327207,,,,,1.0,10,index,1216.15875009,0.0,0.0,none,88.0,2.1078191784799998,0.0,1.0,1.0,,0.0,3.0,7.0,0.0,7.0,,,,
98,,,n,irrelevant,numbers,2017_Jun_18_1026,ring,b,ilya_ring_1task_long,119.94192761299999,r,keyboard,5.4753946227900006,,,,,2.0,10,middle,0.0,0.0,1082.72771727,none,89.0,1.8577844654799998,0.0,1.0,1.0,,0.0,6.0,8.0,1.0,0.0,,,,
99,,,n,baseline,numbers,2017_Jun_18_1026,none,0,ilya_ring_1task_long,119.94192761299999,r,keyboard,540.505882893,,,,,1.0,10,index,1449.40172901,0.0,0.0,none,90.0,2.3743920697400003,0.0,1.0,1.0,,0.0,3.0,9.0,1.0,1.0,,,,
100,,,n,incompatible,numbers,2017_Jun_18_1026,index,i,ilya_ring_1task_long,119.94192761299999,r,keyboard,410.266626195,,,,,2.0,10,middle,0.0,0.0,1407.84423221,none,91.0,2.24954842916,0.0,1.0,1.0,,0.0,4.0,10.0,1.0,2.0,,,,
101,,,n,compatible,numbers,2017_Jun_18_1026,index,i,ilya_ring_1task_long,119.94192761299999,r,keyboard,331.07298256900003,,,,,1.0,10,index,1249.46904204,0.0,0.0,none,92.0,2.18282702664,0.0,1.0,1.0,,0.0,0.0,11.0,1.0,3.0,,,,
102,,,n,baseline,numbers,2017_Jun_18_1026,none,0,ilya_ring_1task_long,119.94192761299999,r,keyboard,149.807788139,,,,,2.0,10,middle,0.0,0.0,1074.48504021,none,93.0,1.999567144,0.0,1.0,1.0,,0.0,7.0,12.0,1.0,4.0,,,,
103,,,n,compatible,numbers,2017_Jun_18_1026,middle,m,ilya_ring_1task_long,119.94192761299999,r,keyboard,346.766129008,,,,,2.0,10,middle,0.0,0.0,1299.46511796,none,94.0,2.19117776678,0.0,1.0,1.0,,0.0,5.0,13.0,1.0,5.0,,,,
104,,,n,irrelevant,numbers,2017_Jun_18_1026,ring,b,ilya_ring_1task_long,119.94192761299999,r,keyboard,147.942482847,,,,,1.0,10,index,1149.34075487,0.0,0.0,none,95.0,1.99941833088,0.0,1.0,1.0,,0.0,2.0,14.0,1.0,6.0,,,,
105,,,n,incompatible,numbers,2017_Jun_18_1026,middle,m,ilya_ring_1task_long,119.94192761299999,r,keyboard,71.88817240739999,,,,,1.0,10,index,949.477493903,0.0,0.0,none,96.0,1.9245049624500001,0.0,1.0,1.0,,0.0,1.0,15.0,1.0,7.0,,,,
106,,,n,compatible,numbers,2017_Jun_18_1026,middle,m,ilya_ring_1task_long,119.94192761299999,r,keyboard,149.090947553,,,,,2.0,10,middle,0.0,0.0,1040.93839801,none,97.0,1.9909326628200001,0.0,1.0,1.0,,0.0,5.0,16.0,2.0,0.0,,,,
107,,,n,baseline,numbers,2017_Jun_18_1026,none,0,ilya_ring_1task_long,119.94192761299999,r,keyboard,526.492276391,,,,,2.0,10,middle,0.0,0.0,1407.94233416,none,98.0,2.38290037671,0.0,1.0,1.0,,0.0,7.0,17.0,2.0,1.0,,,,
108,,,n,compatible,numbers,2017_Jun_18_1026,index,i,ilya_ring_1task_long,119.94192761299999,r,keyboard,405.05250301800004,,,,,1.0,10,index,1291.03197218,0.0,0.0,none,99.0,2.24104978146,0.0,1.0,1.0,,0.0,0.0,18.0,2.0,2.0,,,,
109,,,n,incompatible,numbers,2017_Jun_18_1026,index,i,ilya_ring_1task_long,119.94192761299999,r,keyboard,28.5804203221,,,,,2.0,10,middle,974.423764217,0.0,0.0,none,100.0,1.8744479123900002,0.0,1.0,1.0,,0.0,4.0,19.0,2.0,3.0,,,,
110,,,n,baseline,numbers,2017_Jun_18_1026,none,0,ilya_ring_1task_long,119.94192761299999,r,keyboard,380.76257954199997,,,,,1.0,10,index,1299.44579943,0.0,0.0,none,101.0,2.22448081428,0.0,1.0,1.0,,0.0,3.0,20.0,2.0,4.0,,,,
111,,,n,irrelevant,numbers,2017_Jun_18_1026,ring,b,ilya_ring_1task_long,119.94192761299999,r,keyboard,669.192896643,,,,,1.0,10,index,1674.45062906,0.0,0.0,none,102.0,2.52449651059,0.0,1.0,1.0,,0.0,2.0,21.0,2.0,5.0,,,,
112,,,n,irrelevant,numbers,2017_Jun_18_1026,ring,b,ilya_ring_1task_long,119.94192761299999,r,keyboard,777.1158096730001,,,,,2.0,10,middle,0.0,0.0,1724.75368863,none,103.0,2.6409658665599998,0.0,1.0,1.0,,0.0,6.0,22.0,2.0,6.0,,,,
113,,,n,incompatible,numbers,2017_Jun_18_1026,middle,m,ilya_ring_1task_long,119.94192761299999,r,keyboard,14.730304713199999,,,,,1.0,10,index,924.48685132,0.0,0.0,none,104.0,1.85809718432,0.0,1.0,1.0,,0.0,1.0,23.0,2.0,7.0,,,,
114,,,n,irrelevant,numbers,2017_Jun_18_1026,ring,b,ilya_ring_1task_long,119.94192761299999,r,keyboard,105.96620043200001,,,,,2.0,10,middle,0.0,0.0,974.043128637,none,105.0,1.94073434595,0.0,1.0,1.0,,0.0,6.0,24.0,3.0,0.0,,,,
115,,,n,irrelevant,numbers,2017_Jun_18_1026,ring,b,ilya_ring_1task_long,119.94192761299999,r,keyboard,777.84297376,,,,,1.0,10,index,1699.51069764,0.0,0.0,none,106.0,2.63285208037,0.0,1.0,1.0,,0.0,2.0,25.0,3.0,1.0,,,,
116,,,n,compatible,numbers,2017_Jun_18_1026,index,i,ilya_ring_1task_long,119.94192761299999,r,keyboard,627.270473344,,,,,1.0,10,index,1549.46632537,0.0,0.0,none,107.0,2.4744946994799997,0.0,1.0,1.0,,0.0,0.0,26.0,3.0,2.0,,,,
117,,,n,incompatible,numbers,2017_Jun_18_1026,index,i,ilya_ring_1task_long,119.94192761299999,r,keyboard,284.413263673,,,,,2.0,10,middle,0.0,0.0,1249.43040497,none,108.0,2.12443795127,0.0,1.0,1.0,,0.0,4.0,27.0,3.0,3.0,,,,
118,,,n,compatible,numbers,2017_Jun_18_1026,middle,m,ilya_ring_1task_long,119.94192761299999,r,keyboard,163.342198924,,,,,2.0,10,middle,0.0,0.0,1099.46753278,none,109.0,2.0078430248,0.0,1.0,1.0,,0.0,5.0,28.0,3.0,4.0,,,,
119,,,n,incompatible,numbers,2017_Jun_18_1026,middle,m,ilya_ring_1task_long,119.94192761299999,r,keyboard,220.55926277,,,,,1.0,10,index,1166.05189442,0.0,0.0,none,110.0,2.07438059936,0.0,1.0,1.0,,0.0,1.0,29.0,3.0,5.0,,,,
120,,,n,baseline,numbers,2017_Jun_18_1026,none,0,ilya_ring_1task_long,119.94192761299999,r,keyboard,2000.0,,,,,2.0,10,middle,0.0,0.0,2899.57378474,none,111.0,3.8579444471300004,0.0,1.0,1.0,,0.0,7.0,30.0,3.0,6.0,,,,
121,,,n,baseline,numbers,2017_Jun_18_1026,none,0,ilya_ring_1task_long,119.94192761299999,r,keyboard,148.329087549,,,,,1.0,10,index,1082.8083118,0.0,0.0,none,112.0,1.98286807853,0.0,1.0,1.0,,0.0,3.0,31.0,3.0,7.0,,,,
122,,,n,baseline,numbers,2017_Jun_18_1026,none,0,ilya_ring_1task_long,119.94192761299999,r,keyboard,461.291056136,,,,,2.0,10,middle,0.0,0.0,1332.95803048,none,113.0,2.31614214822,0.0,1.0,1.0,,0.0,7.0,32.0,4.0,0.0,,,,
123,,,n,incompatible,numbers,2017_Jun_18_1026,index,i,ilya_ring_1task_long,119.94192761299999,r,keyboard,110.90727999,,,,,2.0,10,middle,0.0,0.0,1082.67549685,none,114.0,1.95767489314,0.0,1.0,1.0,,0.0,4.0,33.0,4.0,1.0,,,,
124,,,n,irrelevant,numbers,2017_Jun_18_1026,ring,b,ilya_ring_1task_long,119.94192761299999,r,keyboard,663.1442934209999,,,,,1.0,10,index,1541.17414455,0.0,0.0,none,115.0,2.51619587791,0.0,1.0,1.0,,0.0,2.0,34.0,4.0,2.0,,,,
125,,,n,incompatible,numbers,2017_Jun_18_1026,middle,m,ilya_ring_1task_long,119.94192761299999,r,keyboard,256.069328125,,,,,1.0,10,index,1132.70538021,0.0,0.0,none,116.0,2.09953726063,0.0,1.0,1.0,,0.0,1.0,35.0,4.0,3.0,,,,
126,,,n,irrelevant,numbers,2017_Jun_18_1026,ring,b,ilya_ring_1task_long,119.94192761299999,r,keyboard,766.522449863,,,,,2.0,10,middle,0.0,0.0,1716.01114438,none,117.0,2.62438150491,0.0,1.0,1.0,,0.0,6.0,36.0,4.0,4.0,,,,
127,,,n,compatible,numbers,2017_Jun_18_1026,index,i,ilya_ring_1task_long,119.94192761299999,r,keyboard,245.894676238,,,,,1.0,10,index,1224.39056048,0.0,0.0,none,118.0,2.09944338461,0.0,1.0,1.0,,0.0,0.0,37.0,4.0,5.0,,,,
128,,,n,baseline,numbers,2017_Jun_18_1026,none,0,ilya_ring_1task_long,119.94192761299999,r,keyboard,43.5234925612,,,,,1.0,10,index,999.47990872,0.0,0.0,none,119.0,1.89949983096,0.0,1.0,1.0,,0.0,3.0,38.0,4.0,6.0,,,,
129,,,n,compatible,numbers,2017_Jun_18_1026,middle,m,ilya_ring_1task_long,119.94192761299999,r,keyboard,886.458784514,,,,,2.0,10,middle,0.0,0.0,1749.49168095,none,120.0,2.72454209027,0.0,1.0,1.0,,0.0,5.0,39.0,4.0,7.0,,,,
130,,,n,irrelevant,numbers,2017_Jun_18_1026,ring,b,ilya_ring_1task_long,119.94192761299999,r,keyboard,351.34201988800004,,,,,1.0,10,index,1324.48171983,0.0,0.0,none,121.0,2.19953273285,0.0,1.0,1.0,,0.0,2.0,40.0,5.0,0.0,,,,
131,,,n,incompatible,numbers,2017_Jun_18_1026,index,i,ilya_ring_1task_long,119.94192761299999,r,keyboard,352.50291411300003,,,,,2.0,10,middle,0.0,0.0,1349.36852527,none,122.0,2.19937154379,0.0,1.0,1.0,,0.0,4.0,41.0,5.0,1.0,,,,
132,,,n,baseline,numbers,2017_Jun_18_1026,none,0,ilya_ring_1task_long,119.94192761299999,r,keyboard,131.07614987600002,,,,,1.0,10,index,1049.50496245,0.0,0.0,none,123.0,1.97452307358,0.0,1.0,1.0,,0.0,3.0,42.0,5.0,2.0,,,,
133,,,n,compatible,numbers,2017_Jun_18_1026,middle,m,ilya_ring_1task_long,119.94192761299999,r,keyboard,298.279896496,,,,,2.0,10,middle,0.0,0.0,1174.47719205,none,124.0,2.1495269976599998,0.0,1.0,1.0,,0.0,5.0,43.0,5.0,3.0,,,,
134,,,n,irrelevant,numbers,2017_Jun_18_1026,ring,b,ilya_ring_1task_long,119.94192761299999,r,keyboard,323.30426182,,,,,2.0,10,middle,0.0,0.0,1232.79231364,none,125.0,2.1578083118,0.0,1.0,1.0,,0.0,6.0,44.0,5.0,4.0,,,,
135,,,n,incompatible,numbers,2017_Jun_18_1026,middle,m,ilya_ring_1task_long,119.94192761299999,r,keyboard,663.595918709,,,,,1.0,10,index,1674.45877907,0.0,0.0,none,126.0,2.49947024945,0.0,1.0,1.0,,0.0,1.0,45.0,5.0,5.0,,,,
136,,,n,compatible,numbers,2017_Jun_18_1026,index,i,ilya_ring_1task_long,119.94192761299999,r,keyboard,171.054884233,,,,,1.0,10,index,1099.38995677,0.0,0.0,none,127.0,2.0161176982,0.0,1.0,1.0,,0.0,0.0,46.0,5.0,6.0,,,,
137,,,n,baseline,numbers,2017_Jun_18_1026,none,0,ilya_ring_1task_long,119.94192761299999,r,keyboard,4.59291239758,,,,,2.0,10,middle,0.0,0.0,866.085701867,none,128.0,1.85777903214,0.0,1.0,1.0,,0.0,7.0,47.0,5.0,7.0,,,,
138,,,n,irrelevant,numbers,2017_Jun_18_1026,ring,b,ilya_ring_1task_long,119.94192761299999,r,keyboard,917.337668968,,,,,1.0,10,index,2032.80710439,0.0,0.0,none,129.0,2.75785026925,0.0,1.0,1.0,,0.0,2.0,48.0,6.0,0.0,,,,
139,,,n,baseline,numbers,2017_Jun_18_1026,none,0,ilya_ring_1task_long,119.94192761299999,r,keyboard,36.3004821068,,,,,2.0,10,middle,0.0,0.0,1199.42678274,none,130.0,1.8827714858400002,0.0,1.0,1.0,,0.0,7.0,49.0,6.0,1.0,,,,
140,,,n,compatible,numbers,2017_Jun_18_1026,index,i,ilya_ring_1task_long,119.94192761299999,r,keyboard,108.81515207,,,,,1.0,10,index,1057.75669508,0.0,0.0,none,131.0,1.9580298712900002,0.0,1.0,1.0,,0.0,0.0,50.0,6.0,2.0,,,,
141,,,n,compatible,numbers,2017_Jun_18_1026,middle,m,ilya_ring_1task_long,119.94192761299999,r,keyboard,355.01781146900004,,,,,2.0,10,middle,0.0,0.0,1207.21064451,none,132.0,2.2071563111200003,0.0,1.0,1.0,,0.0,5.0,51.0,6.0,3.0,,,,
142,,,n,irrelevant,numbers,2017_Jun_18_1026,ring,b,ilya_ring_1task_long,119.94192761299999,r,keyboard,2.89415561006,,,,,2.0,10,middle,0.0,0.0,949.499227258,none,133.0,1.8495589939900001,0.0,1.0,1.0,,0.0,6.0,52.0,6.0,4.0,,,,
143,,,n,incompatible,numbers,2017_Jun_18_1026,index,i,ilya_ring_1task_long,119.94192761299999,r,keyboard,190.984608957,,,,,2.0,10,middle,0.0,0.0,1099.45153462,none,134.0,2.0411131704099996,0.0,1.0,1.0,,0.0,4.0,53.0,6.0,5.0,,,,
144,,,n,incompatible,numbers,2017_Jun_18_1026,middle,m,ilya_ring_1task_long,119.94192761299999,r,keyboard,285.185697444,,,,,1.0,10,index,1332.76001546,0.0,0.0,none,135.0,2.12448685132,0.0,1.0,1.0,,0.0,1.0,54.0,6.0,6.0,,,,
145,,,n,baseline,numbers,2017_Jun_18_1026,none,0,ilya_ring_1task_long,119.94192761299999,r,keyboard,674.136774995,,,,,1.0,10,index,1649.47960687,0.0,0.0,none,136.0,2.52447930502,0.0,1.0,1.0,,0.0,3.0,55.0,6.0,7.0,,,,
146,,,n,incompatible,numbers,2017_Jun_18_1026,middle,m,ilya_ring_1task_long,119.94192761299999,r,keyboard,346.29470686800005,,,,,1.0,10,index,1324.46330685,0.0,0.0,none,137.0,2.1995212624700002,0.0,1.0,1.0,,0.0,1.0,56.0,7.0,0.0,,,,
147,,,n,irrelevant,numbers,2017_Jun_18_1026,ring,b,ilya_ring_1task_long,119.94192761299999,r,keyboard,271.070403049,,,,,1.0,10,index,1174.48322909,0.0,0.0,none,138.0,2.12450194393,0.0,1.0,1.0,,0.0,2.0,57.0,7.0,1.0,,,,
148,,,n,compatible,numbers,2017_Jun_18_1026,middle,m,ilya_ring_1task_long,119.94192761299999,r,keyboard,818.0375838680001,,,,,2.0,10,middle,0.0,0.0,1832.8922267,none,139.0,2.6743929753,0.0,1.0,1.0,,0.0,5.0,58.0,7.0,2.0,,,,
149,,,n,incompatible,numbers,2017_Jun_18_1026,index,i,ilya_ring_1task_long,119.94192761299999,r,keyboard,288.53144874,,,,,2.0,10,middle,0.0,0.0,1424.39659752,none,140.0,2.14105340368,0.0,1.0,1.0,,0.0,4.0,59.0,7.0,3.0,,,,
150,,,n,compatible,numbers,2017_Jun_18_1026,index,i,ilya_ring_1task_long,119.94192761299999,r,keyboard,14.0795907596,,,,,1.0,10,index,1116.1807853,0.0,0.0,none,141.0,1.86617082418,0.0,1.0,1.0,,0.0,0.0,60.0,7.0,4.0,,,,
151,,,n,baseline,numbers,2017_Jun_18_1026,none,0,ilya_ring_1task_long,119.94192761299999,r,keyboard,133.015855604,,,,,1.0,10,index,1207.92965637,0.0,0.0,none,142.0,1.98290913042,0.0,1.0,1.0,,0.0,3.0,61.0,7.0,5.0,,,,
152,,,n,baseline,numbers,2017_Jun_18_1026,none,0,ilya_ring_1task_long,119.94192761299999,r,keyboard,47.5317604875,,,,,2.0,10,middle,0.0,0.0,999.3775808360001,none,143.0,1.89940354012,0.0,1.0,1.0,,0.0,7.0,62.0,7.0,6.0,,,,
153,,,n,irrelevant,numbers,2017_Jun_18_1026,ring,b,ilya_ring_1task_long,119.94192761299999,r,keyboard,163.574456032,,,,,2.0,10,middle,0.0,0.0,1174.48745502,none,144.0,1.9995315254400003,0.0,1.0,1.0,,0.0,6.0,63.0,7.0,7.0,,,,
154,,,n,incompatible,numbers,2017_Jun_18_1026,middle,m,ilya_ring_1task_long,119.94192761299999,r,keyboard,330.25941303400003,,,,,1.0,10,index,1274.4074642,0.0,0.0,none,145.0,2.1744026345700003,0.0,1.0,1.0,,0.0,1.0,64.0,8.0,0.0,,,,
155,,,n,irrelevant,numbers,2017_Jun_18_1026,ring,b,ilya_ring_1task_long,119.94192761299999,r,keyboard,717.1978163780001,,,,,1.0,10,index,1874.49258651,0.0,0.0,none,146.0,2.57449862355,0.0,1.0,1.0,,0.0,2.0,65.0,8.0,1.0,,,,
156,,,n,compatible,numbers,2017_Jun_18_1026,index,i,ilya_ring_1task_long,119.94192761299999,r,keyboard,152.136344425,,,,,1.0,10,index,1174.51431987,0.0,0.0,none,147.0,1.99955537176,0.0,1.0,1.0,,0.0,0.0,66.0,8.0,2.0,,,,
157,,,n,baseline,numbers,2017_Jun_18_1026,none,0,ilya_ring_1task_long,119.94192761299999,r,keyboard,112.82377834299999,,,,,2.0,10,middle,0.0,0.0,1124.45334573,none,148.0,1.9494901716900004,0.0,1.0,1.0,,0.0,7.0,67.0,8.0,3.0,,,,
158,,,n,incompatible,numbers,2017_Jun_18_1026,index,i,ilya_ring_1task_long,119.94192761299999,r,keyboard,412.950760768,,,,,2.0,10,middle,0.0,0.0,1474.46843834,none,149.0,2.24950345319,0.0,1.0,1.0,,0.0,4.0,68.0,8.0,4.0,,,,
159,,,n,irrelevant,numbers,2017_Jun_18_1026,ring,b,ilya_ring_1task_long,119.94192761299999,r,keyboard,527.379479385,,,,,2.0,10,middle,0.0,0.0,1424.37727898,none,150.0,2.37443432904,0.0,1.0,1.0,,0.0,6.0,69.0,8.0,5.0,,,,
160,,,n,baseline,numbers,2017_Jun_18_1026,none,0,ilya_ring_1task_long,119.94192761299999,r,keyboard,516.9194351909999,,,,,1.0,10,index,1457.90309338,0.0,0.0,none,151.0,2.35773315061,0.0,1.0,1.0,,0.0,3.0,70.0,8.0,6.0,,,,
161,,,n,compatible,numbers,2017_Jun_18_1026,middle,m,ilya_ring_1task_long,119.94192761299999,r,keyboard,3.4545718109300005,,,,,2.0,10,middle,0.0,0.0,974.461495738,none,152.0,1.8411539204599998,0.0,1.0,1.0,,0.0,5.0,71.0,8.0,7.0,,,,
162,,,n,incompatible,numbers,2017_Jun_18_1026,index,i,ilya_ring_1task_long,119.94192761299999,r,keyboard,45.0985357995,,,,,2.0,10,middle,0.0,0.0,1149.32868079,none,153.0,1.89937878824,0.0,1.0,1.0,,0.0,4.0,72.0,9.0,0.0,,,,
163,,,n,incompatible,numbers,2017_Jun_18_1026,middle,m,ilya_ring_1task_long,119.94192761299999,r,keyboard,361.35792957,,,,,1.0,10,index,1399.46089203,0.0,0.0,none,154.0,2.19952065876,0.0,1.0,1.0,,0.0,1.0,73.0,9.0,1.0,,,,
164,,,n,irrelevant,numbers,2017_Jun_18_1026,ring,b,ilya_ring_1task_long,119.94192761299999,r,keyboard,800.7182497910001,,,,,2.0,10,middle,0.0,0.0,1699.44791239,none,155.0,2.6494340271900003,0.0,1.0,1.0,,0.0,6.0,74.0,9.0,2.0,,,,
165,,,n,irrelevant,numbers,2017_Jun_18_1026,ring,b,ilya_ring_1task_long,119.94192761299999,r,keyboard,1012.13385009,,,,,1.0,10,index,1999.49862355,0.0,0.0,none,156.0,2.8496057810699997,0.0,1.0,1.0,,0.0,2.0,75.0,9.0,3.0,,,,
166,,,n,baseline,numbers,2017_Jun_18_1026,none,0,ilya_ring_1task_long,119.94192761299999,r,keyboard,218.859711532,,,,,1.0,10,index,1199.35796045,0.0,0.0,none,157.0,2.0745683514,0.0,1.0,1.0,,0.0,3.0,76.0,9.0,4.0,,,,
167,,,n,compatible,numbers,2017_Jun_18_1026,middle,m,ilya_ring_1task_long,119.94192761299999,r,keyboard,384.67297983199995,,,,,2.0,10,middle,0.0,0.0,1307.44005216,none,158.0,2.22410863056,0.0,1.0,1.0,,0.0,5.0,77.0,9.0,5.0,,,,
168,,,n,compatible,numbers,2017_Jun_18_1026,index,i,ilya_ring_1task_long,119.94192761299999,r,keyboard,243.81429165400002,,,,,1.0,10,index,1199.49409577,0.0,0.0,none,159.0,2.09950767912,0.0,1.0,1.0,,0.0,0.0,78.0,9.0,6.0,,,,
169,,,n,baseline,numbers,2017_Jun_18_1026,none,0,ilya_ring_1task_long,119.94192761299999,r,keyboard,94.90522283770001,,,,,2.0,10,middle,0.0,0.0,974.430103112,none,160.0,1.9494768902000001,0.0,1.0,1.0,,0.0,7.0,79.0,9.0,7.0,,,,
170,,,,,,2017_Jun_18_1026,,,ilya_ring_1task_long,119.94192761299999,r,,,space,6.842021745429999,,,,10,,,,,,,,0.0,1.0,1.0,,0.0,,,,,,,,
171,,,n,baseline,numbers,2017_Jun_18_1026,none,0,ilya_ring_1task_long,119.94192761299999,r,keyboard,673.239113991,,,,,1.0,10,index,1664.91723214,0.0,0.0,none,161.0,2.51493443771,0.0,2.0,2.0,,0.0,3.0,0.0,0.0,0.0,,,,
172,,,n,compatible,numbers,2017_Jun_18_1026,index,i,ilya_ring_1task_long,119.94192761299999,r,keyboard,81.7712358795,,,,,1.0,10,index,1016.02985922,0.0,0.0,none,162.0,1.91607242037,0.0,2.0,2.0,,0.0,0.0,1.0,0.0,1.0,,,,
173,,,n,irrelevant,numbers,2017_Jun_18_1026,ring,b,ilya_ring_1task_long,119.94192761299999,r,keyboard,80.9498561906,,,,,1.0,10,index,966.1264519089999,0.0,0.0,none,163.0,1.9245049624500001,0.0,2.0,2.0,,0.0,2.0,2.0,0.0,2.0,,,,
174,,,n,baseline,numbers,2017_Jun_18_1026,none,0,ilya_ring_1task_long,119.94192761299999,r,keyboard,38.6518500698,,,,,2.0,10,middle,0.0,0.0,999.481719833,none,164.0,1.87441470865,0.0,2.0,2.0,,0.0,7.0,3.0,0.0,3.0,,,,
175,,,n,incompatible,numbers,2017_Jun_18_1026,index,i,ilya_ring_1task_long,119.94192761299999,r,keyboard,693.2592501060001,,,,,2.0,10,middle,0.0,0.0,1590.86685905,none,165.0,2.54088587573,0.0,2.0,2.0,,0.0,4.0,4.0,0.0,4.0,,,,
176,,,n,compatible,numbers,2017_Jun_18_1026,middle,m,ilya_ring_1task_long,119.94192761299999,r,keyboard,85.4356735688,,,,,2.0,10,middle,0.0,0.0,982.7787302889999,none,166.0,1.9328300451599998,0.0,2.0,2.0,,0.0,5.0,5.0,0.0,5.0,,,,
177,,,n,irrelevant,numbers,2017_Jun_18_1026,ring,b,ilya_ring_1task_long,119.94192761299999,r,keyboard,521.085692305,,,,,2.0,10,middle,0.0,0.0,1449.45093091,none,167.0,2.37453454396,0.0,2.0,2.0,,0.0,6.0,6.0,0.0,6.0,,,,
178,,,n,incompatible,numbers,2017_Jun_18_1026,middle,m,ilya_ring_1task_long,119.94192761299999,r,keyboard,327.05829483900004,,,,,1.0,10,index,1265.99544807,0.0,0.0,none,168.0,2.17436309193,0.0,2.0,2.0,,0.0,1.0,7.0,0.0,7.0,,,,
179,,,n,baseline,numbers,2017_Jun_18_1026,none,0,ilya_ring_1task_long,119.94192761299999,r,keyboard,658.3551417,,,,,1.0,10,index,1657.81344329,0.0,0.0,none,169.0,2.50787411557,0.0,2.0,2.0,,0.0,3.0,8.0,1.0,0.0,,,,
180,,,n,irrelevant,numbers,2017_Jun_18_1026,ring,b,ilya_ring_1task_long,119.94192761299999,r,keyboard,175.489665711,,,,,1.0,10,index,1224.35343266,0.0,0.0,none,170.0,2.02436973268,0.0,2.0,2.0,,0.0,2.0,9.0,1.0,1.0,,,,
181,,,n,compatible,numbers,2017_Jun_18_1026,middle,m,ilya_ring_1task_long,119.94192761299999,r,keyboard,644.578125957,,,,,2.0,10,middle,0.0,0.0,1624.49500133,none,171.0,2.483853324,0.0,2.0,2.0,,0.0,5.0,10.0,1.0,2.0,,,,
182,,,n,compatible,numbers,2017_Jun_18_1026,index,i,ilya_ring_1task_long,119.94192761299999,r,keyboard,435.306029965,,,,,1.0,10,index,1339.76298568,0.0,0.0,none,172.0,2.2897992079400002,0.0,2.0,2.0,,0.0,0.0,11.0,1.0,3.0,,,,
183,,,n,incompatible,numbers,2017_Jun_18_1026,index,i,ilya_ring_1task_long,119.94192761299999,r,keyboard,14.7680650158,,,,,2.0,10,middle,0.0,0.0,1124.47628649,none,173.0,1.8494934920700001,0.0,2.0,2.0,,0.0,4.0,12.0,1.0,4.0,,,,
184,,,n,incompatible,numbers,2017_Jun_18_1026,middle,m,ilya_ring_1task_long,119.94192761299999,r,keyboard,256.855981015,,,,,1.0,10,index,1274.44127164,0.0,0.0,none,174.0,2.0994439883099996,0.0,2.0,2.0,,0.0,1.0,13.0,1.0,5.0,,,,
185,,,n,irrelevant,numbers,2017_Jun_18_1026,ring,b,ilya_ring_1task_long,119.94192761299999,r,keyboard,410.91658433699996,,,,,2.0,10,middle,0.0,0.0,1374.40957717,none,175.0,2.24947900316,0.0,2.0,2.0,,0.0,6.0,14.0,1.0,6.0,,,,
186,,,n,baseline,numbers,2017_Jun_18_1026,none,0,ilya_ring_1task_long,119.94192761299999,r,keyboard,4.3246514091199995,,,,,2.0,10,middle,0.0,0.0,957.697532057,none,176.0,1.8410380092200003,0.0,2.0,2.0,,0.0,7.0,15.0,1.0,7.0,,,,
187,,,n,baseline,numbers,2017_Jun_18_1026,none,0,ilya_ring_1task_long,119.94192761299999,r,keyboard,60.3300502059,,,,,1.0,10,index,1074.50284948,0.0,0.0,none,177.0,1.90778567289,0.0,2.0,2.0,,0.0,3.0,16.0,2.0,0.0,,,,
188,,,n,irrelevant,numbers,2017_Jun_18_1026,ring,b,ilya_ring_1task_long,119.94192761299999,r,keyboard,107.302579806,,,,,2.0,10,middle,0.0,0.0,1207.83336553,none,178.0,1.95782370626,0.0,2.0,2.0,,0.0,6.0,17.0,2.0,1.0,,,,
189,,,n,baseline,numbers,2017_Jun_18_1026,none,0,ilya_ring_1task_long,119.94192761299999,r,keyboard,296.08818585,,,,,2.0,10,middle,0.0,0.0,1199.51613098,none,179.0,2.14116146676,0.0,2.0,2.0,,0.0,7.0,18.0,2.0,2.0,,,,
190,,,n,incompatible,numbers,2017_Jun_18_1026,index,i,ilya_ring_1task_long,119.94192761299999,r,keyboard,219.90077342700002,,,,,2.0,10,middle,0.0,0.0,1374.49319022,none,180.0,2.05784030813,0.0,2.0,2.0,,0.0,4.0,19.0,2.0,3.0,,,,
191,,,n,incompatible,numbers,2017_Jun_18_1026,middle,m,ilya_ring_1task_long,119.94192761299999,r,keyboard,73.1028930929,,,,,1.0,10,index,949.3389437589999,0.0,0.0,none,181.0,1.92442587718,0.0,2.0,2.0,,0.0,1.0,20.0,2.0,4.0,,,,
192,,,n,irrelevant,numbers,2017_Jun_18_1026,ring,b,ilya_ring_1task_long,119.94192761299999,r,keyboard,47.031697398199995,,,,,1.0,10,index,1065.90459057,0.0,0.0,none,182.0,1.89927887518,0.0,2.0,2.0,,0.0,2.0,21.0,2.0,5.0,,,,
193,,,n,compatible,numbers,2017_Jun_18_1026,middle,m,ilya_ring_1task_long,119.94192761299999,r,keyboard,846.108449934,,,,,2.0,10,middle,0.0,0.0,1999.45274202,none,183.0,2.6994041438300003,0.0,2.0,2.0,,0.0,5.0,22.0,2.0,6.0,,,,
194,,,n,compatible,numbers,2017_Jun_18_1026,index,i,ilya_ring_1task_long,119.94192761299999,r,keyboard,363.7415505,,,,,1.0,10,index,1299.51492357,0.0,0.0,none,184.0,2.20800451571,0.0,2.0,2.0,,0.0,0.0,23.0,2.0,7.0,,,,
195,,,n,incompatible,numbers,2017_Jun_18_1026,index,i,ilya_ring_1task_long,119.94192761299999,r,keyboard,59.53673703850001,,,,,2.0,10,middle,0.0,0.0,1049.25382145,none,185.0,1.8992740455400001,0.0,2.0,2.0,,0.0,4.0,24.0,3.0,0.0,,,,
196,,,n,baseline,numbers,2017_Jun_18_1026,none,0,ilya_ring_1task_long,119.94192761299999,r,keyboard,240.924519099,,,,,2.0,10,middle,0.0,0.0,1082.73013209,none,186.0,2.09108540001,0.0,2.0,2.0,,0.0,7.0,25.0,3.0,1.0,,,,
197,,,n,compatible,numbers,2017_Jun_18_1026,middle,m,ilya_ring_1task_long,119.94192761299999,r,keyboard,154.447720106,,,,,2.0,10,middle,0.0,0.0,974.4557605460001,none,187.0,1.99951371616,0.0,2.0,2.0,,0.0,5.0,26.0,3.0,2.0,,,,
198,,,n,irrelevant,numbers,2017_Jun_18_1026,ring,b,ilya_ring_1task_long,119.94192761299999,r,keyboard,44.991992052700006,,,,,1.0,10,index,1049.4844365000001,0.0,0.0,none,188.0,1.8994895679900003,0.0,2.0,2.0,,0.0,2.0,27.0,3.0,3.0,,,,
199,,,n,irrelevant,numbers,2017_Jun_18_1026,ring,b,ilya_ring_1task_long,119.94192761299999,r,keyboard,1102.48877969,,,,,2.0,10,middle,0.0,0.0,1974.63656999,none,189.0,2.95797885828,0.0,2.0,2.0,,0.0,6.0,28.0,3.0,4.0,,,,
200,,,n,compatible,numbers,2017_Jun_18_1026,index,i,ilya_ring_1task_long,119.94192761299999,r,keyboard,421.77327453699996,,,,,1.0,10,index,1366.04766849,0.0,0.0,none,190.0,2.2661333945099997,0.0,2.0,2.0,,0.0,0.0,29.0,3.0,5.0,,,,
201,,,n,incompatible,numbers,2017_Jun_18_1026,middle,m,ilya_ring_1task_long,119.94192761299999,r,keyboard,87.8610196994,,,,,1.0,10,index,1149.30211779,0.0,0.0,none,191.0,1.92433562338,0.0,2.0,2.0,,0.0,1.0,30.0,3.0,6.0,,,,
202,,,n,baseline,numbers,2017_Jun_18_1026,none,0,ilya_ring_1task_long,119.94192761299999,r,keyboard,13.7801684165,,,,,1.0,10,index,999.449723504,0.0,0.0,none,192.0,1.86615120379,0.0,2.0,2.0,,0.0,3.0,31.0,3.0,7.0,,,,
203,,,n,irrelevant,numbers,2017_Jun_18_1026,ring,b,ilya_ring_1task_long,119.94192761299999,r,keyboard,66.1212191502,,,,,1.0,10,index,1049.46059018,0.0,0.0,none,193.0,1.92452246988,0.0,2.0,2.0,,0.0,2.0,32.0,4.0,0.0,,,,
204,,,n,incompatible,numbers,2017_Jun_18_1026,index,i,ilya_ring_1task_long,119.94192761299999,r,keyboard,89.4144045005,,,,,2.0,10,middle,0.0,0.0,1057.75458212,none,194.0,1.93293056193,0.0,2.0,2.0,,0.0,4.0,33.0,4.0,1.0,,,,
205,,,n,baseline,numbers,2017_Jun_18_1026,none,0,ilya_ring_1task_long,119.94192761299999,r,keyboard,324.620304252,,,,,2.0,10,middle,0.0,0.0,1399.34618821,none,195.0,2.17435977156,0.0,2.0,2.0,,0.0,7.0,34.0,4.0,2.0,,,,
206,,,n,irrelevant,numbers,2017_Jun_18_1026,ring,b,ilya_ring_1task_long,119.94192761299999,r,keyboard,966.79626503,,,,,2.0,10,middle,0.0,0.0,1816.08238149,none,196.0,2.80779684142,0.0,2.0,2.0,,0.0,6.0,35.0,4.0,3.0,,,,
207,,,n,baseline,numbers,2017_Jun_18_1026,none,0,ilya_ring_1task_long,119.94192761299999,r,keyboard,350.248085596,,,,,1.0,10,index,1349.40203086,0.0,0.0,none,197.0,2.1994153123599998,0.0,2.0,2.0,,0.0,3.0,36.0,4.0,4.0,,,,
208,,,n,compatible,numbers,2017_Jun_18_1026,index,i,ilya_ring_1task_long,119.94192761299999,r,keyboard,83.7829137108,,,,,1.0,10,index,1124.50224578,0.0,0.0,none,198.0,1.924567144,0.0,2.0,2.0,,0.0,0.0,37.0,4.0,5.0,,,,
209,,,n,incompatible,numbers,2017_Jun_18_1026,middle,m,ilya_ring_1task_long,119.94192761299999,r,keyboard,274.88350947099997,,,,,1.0,10,index,1257.52215595,0.0,0.0,none,199.0,2.13258101712,0.0,2.0,2.0,,0.0,1.0,38.0,4.0,6.0,,,,
210,,,n,compatible,numbers,2017_Jun_18_1026,middle,m,ilya_ring_1task_long,119.94192761299999,r,keyboard,1000.63699344,,,,,2.0,10,middle,0.0,0.0,1941.05732776,none,200.0,2.84150406897,0.0,2.0,2.0,,0.0,5.0,39.0,4.0,7.0,,,,
211,,,n,baseline,numbers,2017_Jun_18_1026,none,0,ilya_ring_1task_long,119.94192761299999,r,keyboard,201.866958176,,,,,2.0,10,middle,0.0,0.0,1124.09202869,none,201.0,2.04912734539,0.0,2.0,2.0,,0.0,7.0,40.0,5.0,0.0,,,,
212,,,n,incompatible,numbers,2017_Jun_18_1026,middle,m,ilya_ring_1task_long,119.94192761299999,r,keyboard,548.2439756819999,,,,,1.0,10,index,1574.47538094,0.0,0.0,none,202.0,2.3828469488799997,0.0,2.0,2.0,,0.0,1.0,41.0,5.0,1.0,,,,
213,,,n,irrelevant,numbers,2017_Jun_18_1026,ring,b,ilya_ring_1task_long,119.94192761299999,r,keyboard,499.043870464,,,,,1.0,10,index,1557.64531163,0.0,0.0,none,203.0,2.3577044746599998,0.0,2.0,2.0,,0.0,2.0,42.0,5.0,2.0,,,,
214,,,n,irrelevant,numbers,2017_Jun_18_1026,ring,b,ilya_ring_1task_long,119.94192761299999,r,keyboard,59.639758137200005,,,,,2.0,10,middle,0.0,0.0,1074.44730869,none,204.0,1.89946391056,0.0,2.0,2.0,,0.0,6.0,43.0,5.0,3.0,,,,
215,,,n,incompatible,numbers,2017_Jun_18_1026,index,i,ilya_ring_1task_long,119.94192761299999,r,keyboard,17.3639381101,,,,,2.0,10,middle,0.0,0.0,999.441573495,none,205.0,1.8661753519599997,0.0,2.0,2.0,,0.0,4.0,44.0,5.0,4.0,,,,
216,,,n,baseline,numbers,2017_Jun_18_1026,none,0,ilya_ring_1task_long,119.94192761299999,r,keyboard,443.827679349,,,,,1.0,10,index,1432.55505783,0.0,0.0,none,206.0,2.29932264374,0.0,2.0,2.0,,0.0,3.0,45.0,5.0,5.0,,,,
217,,,n,compatible,numbers,2017_Jun_18_1026,index,i,ilya_ring_1task_long,119.94192761299999,r,keyboard,46.5808737816,,,,,1.0,10,index,1232.79533216,0.0,0.0,none,207.0,1.8910428388599998,0.0,2.0,2.0,,0.0,0.0,46.0,5.0,6.0,,,,
218,,,n,compatible,numbers,2017_Jun_18_1026,middle,m,ilya_ring_1task_long,119.94192761299999,r,keyboard,58.89186005729999,,,,,2.0,10,middle,0.0,0.0,907.453031803,none,208.0,1.9158387868,0.0,2.0,2.0,,0.0,5.0,47.0,5.0,7.0,,,,
219,,,n,irrelevant,numbers,2017_Jun_18_1026,ring,b,ilya_ring_1task_long,119.94192761299999,r,keyboard,3.20172240789,,,,,2.0,10,middle,0.0,0.0,899.4581753639999,none,209.0,1.8494989254099998,0.0,2.0,2.0,,0.0,6.0,48.0,6.0,0.0,,,,
220,,,n,incompatible,numbers,2017_Jun_18_1026,middle,m,ilya_ring_1task_long,119.94192761299999,r,keyboard,161.135854231,,,,,1.0,10,index,1099.4491197999998,0.0,0.0,none,210.0,1.9994898698400003,0.0,2.0,2.0,,0.0,1.0,49.0,6.0,1.0,,,,
221,,,n,baseline,numbers,2017_Jun_18_1026,none,0,ilya_ring_1task_long,119.94192761299999,r,keyboard,1200.2055836,,,,,1.0,10,index,2157.81887663,0.0,0.0,none,211.0,3.05785962667,0.0,2.0,2.0,,0.0,3.0,50.0,6.0,2.0,,,,
222,,,n,baseline,numbers,2017_Jun_18_1026,none,0,ilya_ring_1task_long,119.94192761299999,r,keyboard,33.7652096577,,,,,2.0,10,middle,0.0,0.0,924.365204897,none,212.0,1.8743851271400003,0.0,2.0,2.0,,0.0,7.0,51.0,6.0,3.0,,,,
223,,,n,incompatible,numbers,2017_Jun_18_1026,index,i,ilya_ring_1task_long,119.94192761299999,r,keyboard,156.185919617,,,,,2.0,10,middle,0.0,0.0,1124.41712347,none,213.0,1.9994527420200001,0.0,2.0,2.0,,0.0,4.0,52.0,6.0,4.0,,,,
224,,,n,compatible,numbers,2017_Jun_18_1026,middle,m,ilya_ring_1task_long,119.94192761299999,r,keyboard,576.5595667709999,,,,,2.0,10,middle,0.0,0.0,1491.03619811,none,214.0,2.41605219628,0.0,2.0,2.0,,0.0,5.0,53.0,6.0,5.0,,,,
225,,,n,irrelevant,numbers,2017_Jun_18_1026,ring,b,ilya_ring_1task_long,119.94192761299999,r,keyboard,212.445546132,,,,,1.0,10,index,1157.73254691,0.0,0.0,none,215.0,2.05776937287,0.0,2.0,2.0,,0.0,2.0,54.0,6.0,6.0,,,,
226,,,n,compatible,numbers,2017_Jun_18_1026,index,i,ilya_ring_1task_long,119.94192761299999,r,keyboard,453.62828554,,,,,1.0,10,index,1416.15573157,0.0,0.0,none,216.0,2.29953665693,0.0,2.0,2.0,,0.0,0.0,55.0,6.0,7.0,,,,
227,,,n,incompatible,numbers,2017_Jun_18_1026,index,i,ilya_ring_1task_long,119.94192761299999,r,keyboard,164.996035127,,,,,2.0,10,middle,0.0,0.0,1149.29125112,none,217.0,1.9993416604299998,0.0,2.0,2.0,,0.0,4.0,56.0,7.0,0.0,,,,
228,,,n,compatible,numbers,2017_Jun_18_1026,index,i,ilya_ring_1task_long,119.94192761299999,r,keyboard,39.377937762600006,,,,,1.0,10,index,1016.13943155,0.0,0.0,none,218.0,1.89113792229,0.0,2.0,2.0,,0.0,0.0,57.0,7.0,1.0,,,,
229,,,n,incompatible,numbers,2017_Jun_18_1026,middle,m,ilya_ring_1task_long,119.94192761299999,r,keyboard,188.503299279,,,,,1.0,10,index,1116.17927604,0.0,0.0,none,219.0,2.04118018159,0.0,2.0,2.0,,0.0,1.0,58.0,7.0,2.0,,,,
230,,,n,baseline,numbers,2017_Jun_18_1026,none,0,ilya_ring_1task_long,119.94192761299999,r,keyboard,156.446182541,,,,,1.0,10,index,1007.72077467,0.0,0.0,none,220.0,1.99114426119,0.0,2.0,2.0,,0.0,3.0,59.0,7.0,3.0,,,,
231,,,n,compatible,numbers,2017_Jun_18_1026,middle,m,ilya_ring_1task_long,119.94192761299999,r,keyboard,191.227142332,,,,,2.0,10,middle,0.0,0.0,1140.95137765,none,221.0,2.04099635363,0.0,2.0,2.0,,0.0,5.0,60.0,7.0,4.0,,,,
232,,,n,irrelevant,numbers,2017_Jun_18_1026,ring,b,ilya_ring_1task_long,119.94192761299999,r,keyboard,27.1646180079,,,,,2.0,10,middle,0.0,0.0,916.1367148830001,none,222.0,1.86631722248,0.0,2.0,2.0,,0.0,6.0,61.0,7.0,5.0,,,,
233,,,n,irrelevant,numbers,2017_Jun_18_1026,ring,b,ilya_ring_1task_long,119.94192761299999,r,keyboard,276.173401592,,,,,1.0,10,index,1257.5924875,0.0,0.0,none,223.0,2.13263323754,0.0,2.0,2.0,,0.0,2.0,62.0,7.0,6.0,,,,
234,,,n,baseline,numbers,2017_Jun_18_1026,none,0,ilya_ring_1task_long,119.94192761299999,r,keyboard,39.5883490175,,,,,2.0,10,middle,0.0,0.0,1190.95982951,none,224.0,1.89094171838,0.0,2.0,2.0,,0.0,7.0,63.0,7.0,7.0,,,,
235,,,n,irrelevant,numbers,2017_Jun_18_1026,ring,b,ilya_ring_1task_long,119.94192761299999,r,keyboard,9.31787718268,,,,,1.0,10,index,1016.15603342,0.0,0.0,none,225.0,1.8662710391,0.0,2.0,2.0,,0.0,2.0,64.0,8.0,0.0,,,,
236,,,n,baseline,numbers,2017_Jun_18_1026,none,0,ilya_ring_1task_long,119.94192761299999,r,keyboard,576.912986512,,,,,2.0,10,middle,0.0,0.0,1424.25714182,none,226.0,2.4326474246000003,0.0,2.0,2.0,,0.0,7.0,65.0,8.0,1.0,,,,
237,,,n,irrelevant,numbers,2017_Jun_18_1026,ring,b,ilya_ring_1task_long,119.94192761299999,r,keyboard,130.719438327,,,,,2.0,10,middle,0.0,0.0,1049.39780493,none,227.0,1.98272409505,0.0,2.0,2.0,,0.0,6.0,66.0,8.0,2.0,,,,
238,,,n,compatible,numbers,2017_Jun_18_1026,index,i,ilya_ring_1task_long,119.94192761299999,r,keyboard,176.41597007400003,,,,,1.0,10,index,1124.40082345,0.0,0.0,none,228.0,2.0244500253599997,0.0,2.0,2.0,,0.0,0.0,67.0,8.0,3.0,,,,
239,,,n,incompatible,numbers,2017_Jun_18_1026,middle,m,ilya_ring_1task_long,119.94192761299999,r,keyboard,138.19340141200001,,,,,1.0,10,index,1082.72318949,0.0,0.0,none,229.0,1.9827237931900001,0.0,2.0,2.0,,0.0,1.0,68.0,8.0,4.0,,,,
240,,,n,baseline,numbers,2017_Jun_18_1026,none,0,ilya_ring_1task_long,119.94192761299999,r,keyboard,126.656369461,,,,,1.0,10,index,1049.49801985,0.0,0.0,none,230.0,1.9745212624700001,0.0,2.0,2.0,,0.0,3.0,69.0,8.0,5.0,,,,
241,,,n,compatible,numbers,2017_Jun_18_1026,middle,m,ilya_ring_1task_long,119.94192761299999,r,keyboard,245.590508029,,,,,2.0,10,middle,0.0,0.0,1099.39056048,none,231.0,2.0993984086400004,0.0,2.0,2.0,,0.0,5.0,70.0,8.0,6.0,,,,
242,,,n,incompatible,numbers,2017_Jun_18_1026,index,i,ilya_ring_1task_long,119.94192761299999,r,keyboard,816.942524916,,,,,2.0,10,middle,0.0,0.0,1874.52820507,none,232.0,2.67445213832,0.0,2.0,2.0,,0.0,4.0,71.0,8.0,7.0,,,,
243,,,n,baseline,numbers,2017_Jun_18_1026,none,0,ilya_ring_1task_long,119.94192761299999,r,keyboard,728.4598130589999,,,,,2.0,10,middle,0.0,0.0,1632.79804883,none,233.0,2.5828327618299998,0.0,2.0,2.0,,0.0,7.0,72.0,9.0,0.0,,,,
244,,,n,incompatible,numbers,2017_Jun_18_1026,index,i,ilya_ring_1task_long,119.94192761299999,r,keyboard,123.49637098299999,,,,,2.0,10,middle,0.0,0.0,1282.67066721,none,234.0,1.9579381082299998,0.0,2.0,2.0,,0.0,4.0,73.0,9.0,1.0,,,,
245,,,n,incompatible,numbers,2017_Jun_18_1026,middle,m,ilya_ring_1task_long,119.94192761299999,r,keyboard,158.170712841,,,,,1.0,10,index,1132.50374297,0.0,0.0,none,235.0,2.00752094854,0.0,2.0,2.0,,0.0,1.0,74.0,9.0,2.0,,,,
246,,,n,baseline,numbers,2017_Jun_18_1026,none,0,ilya_ring_1task_long,119.94192761299999,r,keyboard,765.1251620160001,,,,,1.0,10,index,1774.4421772,0.0,0.0,none,236.0,2.5995182439400004,0.0,2.0,2.0,,0.0,3.0,75.0,9.0,3.0,,,,
247,,,n,compatible,numbers,2017_Jun_18_1026,index,i,ilya_ring_1task_long,119.94192761299999,r,keyboard,511.94763697400003,,,,,1.0,10,index,1574.45908092,0.0,0.0,none,237.0,2.3661530149,0.0,2.0,2.0,,0.0,0.0,76.0,9.0,4.0,,,,
248,,,n,irrelevant,numbers,2017_Jun_18_1026,ring,b,ilya_ring_1task_long,119.94192761299999,r,keyboard,413.793768734,,,,,1.0,10,index,1399.40233271,0.0,0.0,none,238.0,2.24944187535,0.0,2.0,2.0,,0.0,2.0,77.0,9.0,5.0,,,,
249,,,n,compatible,numbers,2017_Jun_18_1026,middle,m,ilya_ring_1task_long,119.94192761299999,r,keyboard,163.349804229,,,,,2.0,10,middle,0.0,0.0,1157.75035618,none,239.0,2.0078043877200002,0.0,2.0,2.0,,0.0,5.0,78.0,9.0,6.0,,,,
250,,,n,irrelevant,numbers,2017_Jun_18_1026,ring,b,ilya_ring_1task_long,119.94192761299999,r,keyboard,135.923865006,,,,,2.0,10,middle,0.0,0.0,1065.98065731,none,240.0,1.99102291662,0.0,2.0,2.0,,0.0,6.0,79.0,9.0,7.0,,,,
251,,,,,,2017_Jun_18_1026,,,ilya_ring_1task_long,119.94192761299999,r,,,space,2.51694567868,,,,10,,,,,,,,0.0,2.0,2.0,,0.0,,,,,,,,
252,,,n,baseline,numbers,2017_Jun_18_1026,none,0,ilya_ring_1task_long,119.94192761299999,r,keyboard,111.95791657299999,,,,,2.0,10,middle,0.0,0.0,1175.71327667,none,241.0,1.9507262563099999,0.0,3.0,3.0,,0.0,7.0,0.0,0.0,0.0,,,,
253,,,n,irrelevant,numbers,2017_Jun_18_1026,ring,b,ilya_ring_1task_long,119.94192761299999,r,keyboard,629.381292708,,,,,1.0,10,index,1649.47387168,0.0,0.0,none,242.0,2.47448896428,0.0,3.0,3.0,,0.0,2.0,1.0,0.0,1.0,,,,
254,,,n,baseline,numbers,2017_Jun_18_1026,none,0,ilya_ring_1task_long,119.94192761299999,r,keyboard,71.07247839189999,,,,,1.0,10,index,1124.50013281,0.0,0.0,none,243.0,1.9078342710900003,0.0,3.0,3.0,,0.0,3.0,2.0,0.0,2.0,,,,
255,,,n,incompatible,numbers,2017_Jun_18_1026,index,i,ilya_ring_1task_long,119.94192761299999,r,keyboard,22.360981705,,,,,2.0,10,middle,0.0,0.0,1058.0027046,none,244.0,1.8662034242099999,0.0,3.0,3.0,,0.0,4.0,3.0,0.0,3.0,,,,
256,,,n,irrelevant,numbers,2017_Jun_18_1026,ring,b,ilya_ring_1task_long,119.94192761299999,r,keyboard,1142.42445247,,,,,2.0,10,middle,0.0,0.0,2099.6649441,none,245.0,2.9995303180299997,0.0,3.0,3.0,,0.0,6.0,4.0,0.0,4.0,,,,
257,,,n,compatible,numbers,2017_Jun_18_1026,index,i,ilya_ring_1task_long,119.94192761299999,r,keyboard,150.897084001,,,,,1.0,10,index,1099.52729951,0.0,0.0,none,246.0,2.00784574147,0.0,3.0,3.0,,0.0,0.0,5.0,0.0,5.0,,,,
258,,,n,incompatible,numbers,2017_Jun_18_1026,middle,m,ilya_ring_1task_long,119.94192761299999,r,keyboard,152.233831673,,,,,1.0,10,index,1224.51009394,0.0,0.0,none,247.0,1.9995230735799998,0.0,3.0,3.0,,0.0,1.0,6.0,0.0,6.0,,,,
259,,,n,compatible,numbers,2017_Jun_18_1026,middle,m,ilya_ring_1task_long,119.94192761299999,r,keyboard,415.10651932,,,,,2.0,10,middle,0.0,0.0,1299.48715317,none,248.0,2.26622968535,0.0,3.0,3.0,,0.0,5.0,7.0,0.0,7.0,,,,
260,,,n,compatible,numbers,2017_Jun_18_1026,middle,m,ilya_ring_1task_long,119.94192761299999,r,keyboard,238.37538789200002,,,,,2.0,10,middle,0.0,0.0,1141.1038130000002,none,249.0,2.09111498153,0.0,3.0,3.0,,0.0,5.0,8.0,1.0,0.0,,,,
261,,,n,baseline,numbers,2017_Jun_18_1026,none,0,ilya_ring_1task_long,119.94192761299999,r,keyboard,29.0258803629,,,,,2.0,10,middle,0.0,0.0,999.4627031460001,none,250.0,1.8745200550599999,0.0,3.0,3.0,,0.0,7.0,9.0,1.0,1.0,,,,
262,,,n,incompatible,numbers,2017_Jun_18_1026,index,i,ilya_ring_1task_long,119.94192761299999,r,keyboard,123.92732568,,,,,2.0,10,middle,0.0,0.0,1174.35675304,none,251.0,1.97442014199,0.0,3.0,3.0,,0.0,4.0,10.0,1.0,2.0,,,,
263,,,n,baseline,numbers,2017_Jun_18_1026,none,0,ilya_ring_1task_long,119.94192761299999,r,keyboard,741.460840839,,,,,1.0,10,index,1749.49469948,0.0,0.0,none,252.0,2.59950315134,0.0,3.0,3.0,,0.0,3.0,11.0,1.0,3.0,,,,
264,,,n,incompatible,numbers,2017_Jun_18_1026,middle,m,ilya_ring_1task_long,119.94192761299999,r,keyboard,202.212922685,,,,,1.0,10,index,1391.1044167000002,0.0,0.0,none,253.0,2.0411246408,0.0,3.0,3.0,,0.0,1.0,12.0,1.0,4.0,,,,
265,,,n,irrelevant,numbers,2017_Jun_18_1026,ring,b,ilya_ring_1task_long,119.94192761299999,r,keyboard,429.73262131800004,,,,,2.0,10,middle,0.0,0.0,1274.54420323,none,254.0,2.27458646253,0.0,3.0,3.0,,0.0,6.0,13.0,1.0,5.0,,,,
266,,,n,irrelevant,numbers,2017_Jun_18_1026,ring,b,ilya_ring_1task_long,119.94192761299999,r,keyboard,397.864324124,,,,,1.0,10,index,1366.05853517,0.0,0.0,none,255.0,2.24107815556,0.0,3.0,3.0,,0.0,2.0,14.0,1.0,6.0,,,,
267,,,n,compatible,numbers,2017_Jun_18_1026,index,i,ilya_ring_1task_long,119.94192761299999,r,keyboard,1454.40400254,,,,,1.0,10,index,2541.03800923,0.0,0.0,none,256.0,3.29107302408,0.0,3.0,3.0,,0.0,0.0,15.0,1.0,7.0,,,,
268,,,n,incompatible,numbers,2017_Jun_18_1026,middle,m,ilya_ring_1task_long,119.94192761299999,r,keyboard,300.088753313,,,,,1.0,10,index,1299.48926614,0.0,0.0,none,257.0,2.1578215933,0.0,3.0,3.0,,0.0,1.0,16.0,2.0,0.0,,,,
269,,,n,baseline,numbers,2017_Jun_18_1026,none,0,ilya_ring_1task_long,119.94192761299999,r,keyboard,141.65703843,,,,,2.0,10,middle,0.0,0.0,1049.49439762,none,258.0,1.9828381951700003,0.0,3.0,3.0,,0.0,7.0,17.0,2.0,1.0,,,,
270,,,n,irrelevant,numbers,2017_Jun_18_1026,ring,b,ilya_ring_1task_long,119.94192761299999,r,keyboard,1620.24271331,,,,,2.0,10,middle,0.0,0.0,2932.84423221,none,259.0,3.45785570259,0.0,3.0,3.0,,0.0,6.0,18.0,2.0,2.0,,,,
271,,,n,irrelevant,numbers,2017_Jun_18_1026,ring,b,ilya_ring_1task_long,119.94192761299999,r,keyboard,22.6923200647,,,,,1.0,10,index,1074.48473835,0.0,0.0,none,260.0,1.8745143198700003,0.0,3.0,3.0,,0.0,2.0,19.0,2.0,3.0,,,,
272,,,n,compatible,numbers,2017_Jun_18_1026,index,i,ilya_ring_1task_long,119.94192761299999,r,keyboard,49.768223558900004,,,,,1.0,10,index,957.81223588,0.0,0.0,none,261.0,1.9077850691799998,0.0,3.0,3.0,,0.0,0.0,20.0,2.0,4.0,,,,
273,,,n,incompatible,numbers,2017_Jun_18_1026,index,i,ilya_ring_1task_long,119.94192761299999,r,keyboard,456.48661391300004,,,,,2.0,10,middle,0.0,0.0,1332.91365821,none,262.0,2.29124296684,0.0,3.0,3.0,,0.0,4.0,21.0,2.0,5.0,,,,
274,,,n,baseline,numbers,2017_Jun_18_1026,none,0,ilya_ring_1task_long,119.94192761299999,r,keyboard,35.0117376528,,,,,1.0,10,index,991.147883413,0.0,0.0,none,263.0,1.8911828982599999,0.0,3.0,3.0,,0.0,3.0,22.0,2.0,6.0,,,,
275,,,n,compatible,numbers,2017_Jun_18_1026,middle,m,ilya_ring_1task_long,119.94192761299999,r,keyboard,196.886823223,,,,,2.0,10,middle,0.0,0.0,1024.3443771,none,264.0,2.0494159160599996,0.0,3.0,3.0,,0.0,5.0,23.0,2.0,7.0,,,,
276,,,n,irrelevant,numbers,2017_Jun_18_1026,ring,b,ilya_ring_1task_long,119.94192761299999,r,keyboard,336.850589791,,,,,2.0,10,middle,0.0,0.0,1282.80650069,none,265.0,2.18283004516,0.0,3.0,3.0,,0.0,6.0,24.0,3.0,0.0,,,,
277,,,n,irrelevant,numbers,2017_Jun_18_1026,ring,b,ilya_ring_1task_long,119.94192761299999,r,keyboard,310.37034225599996,,,,,1.0,10,index,1324.55114583,0.0,0.0,none,266.0,2.1578378933099995,0.0,3.0,3.0,,0.0,2.0,25.0,3.0,1.0,,,,
278,,,n,baseline,numbers,2017_Jun_18_1026,none,0,ilya_ring_1task_long,119.94192761299999,r,keyboard,257.516164187,,,,,1.0,10,index,1216.14999638,0.0,0.0,none,267.0,2.12451250875,0.0,3.0,3.0,,0.0,3.0,26.0,3.0,2.0,,,,
279,,,n,incompatible,numbers,2017_Jun_18_1026,index,i,ilya_ring_1task_long,119.94192761299999,r,keyboard,268.453351658,,,,,2.0,10,middle,0.0,0.0,1124.36641231,none,268.0,2.10763293569,0.0,3.0,3.0,,0.0,4.0,27.0,3.0,3.0,,,,
280,,,n,incompatible,numbers,2017_Jun_18_1026,middle,m,ilya_ring_1task_long,119.94192761299999,r,keyboard,640.225749953,,,,,1.0,10,index,1641.10713337,0.0,0.0,none,269.0,2.47446028833,0.0,3.0,3.0,,0.0,1.0,28.0,3.0,4.0,,,,
281,,,n,compatible,numbers,2017_Jun_18_1026,index,i,ilya_ring_1task_long,119.94192761299999,r,keyboard,128.98811157,,,,,1.0,10,index,1074.55205139,0.0,0.0,none,270.0,1.97445485499,0.0,3.0,3.0,,0.0,0.0,29.0,3.0,5.0,,,,
282,,,n,compatible,numbers,2017_Jun_18_1026,middle,m,ilya_ring_1task_long,119.94192761299999,r,keyboard,283.580625203,,,,,2.0,10,middle,0.0,0.0,1107.82763034,none,271.0,2.13285660815,0.0,3.0,3.0,,0.0,5.0,30.0,3.0,6.0,,,,
283,,,n,baseline,numbers,2017_Jun_18_1026,none,0,ilya_ring_1task_long,119.94192761299999,r,keyboard,844.5730306810001,,,,,2.0,10,middle,0.0,0.0,2316.18712419,none,272.0,2.69119014272,0.0,3.0,3.0,,0.0,7.0,31.0,3.0,7.0,,,,
284,,,n,irrelevant,numbers,2017_Jun_18_1026,ring,b,ilya_ring_1task_long,119.94192761299999,r,keyboard,741.420967382,,,,,2.0,10,middle,0.0,0.0,1707.79231364,none,273.0,2.5828430248,0.0,3.0,3.0,,0.0,6.0,32.0,4.0,0.0,,,,
285,,,n,baseline,numbers,2017_Jun_18_1026,none,0,ilya_ring_1task_long,119.94192761299999,r,keyboard,44.193557194899995,,,,,1.0,10,index,1107.74854507,0.0,0.0,none,274.0,1.88279774698,0.0,3.0,3.0,,0.0,3.0,33.0,4.0,1.0,,,,
286,,,n,baseline,numbers,2017_Jun_18_1026,none,0,ilya_ring_1task_long,119.94192761299999,r,keyboard,250.990973766,,,,,2.0,10,middle,0.0,0.0,1099.45877907,none,275.0,2.09946692908,0.0,3.0,3.0,,0.0,7.0,34.0,4.0,2.0,,,,
287,,,n,irrelevant,numbers,2017_Jun_18_1026,ring,b,ilya_ring_1task_long,119.94192761299999,r,keyboard,7.17401821017,,,,,1.0,10,index,1024.67611263,0.0,0.0,none,276.0,1.84946391056,0.0,3.0,3.0,,0.0,2.0,35.0,4.0,3.0,,,,
288,,,n,compatible,numbers,2017_Jun_18_1026,index,i,ilya_ring_1task_long,119.94192761299999,r,keyboard,15.9379889081,,,,,1.0,10,index,999.698449687,0.0,0.0,none,277.0,1.8743721475,0.0,3.0,3.0,,0.0,0.0,36.0,4.0,4.0,,,,
289,,,n,incompatible,numbers,2017_Jun_18_1026,index,i,ilya_ring_1task_long,119.94192761299999,r,keyboard,50.2011290506,,,,,2.0,10,middle,0.0,0.0,891.1466760039999,none,278.0,1.8911445630400001,0.0,3.0,3.0,,0.0,4.0,37.0,4.0,5.0,,,,
290,,,n,incompatible,numbers,2017_Jun_18_1026,middle,m,ilya_ring_1task_long,119.94192761299999,r,keyboard,462.344883153,,,,,1.0,10,index,1449.32596412,0.0,0.0,none,279.0,2.29936731786,0.0,3.0,3.0,,0.0,1.0,38.0,4.0,6.0,,,,
291,,,n,compatible,numbers,2017_Jun_18_1026,middle,m,ilya_ring_1task_long,119.94192761299999,r,keyboard,429.70310921699996,,,,,2.0,10,middle,0.0,0.0,1599.4276883,none,280.0,2.27456684214,0.0,3.0,3.0,,0.0,5.0,39.0,4.0,7.0,,,,
292,,,n,compatible,numbers,2017_Jun_18_1026,middle,m,ilya_ring_1task_long,119.94192761299999,r,keyboard,1454.68913533,,,,,2.0,10,middle,0.0,0.0,2482.49770592,none,281.0,3.29085599237,0.0,3.0,3.0,,0.0,5.0,40.0,5.0,0.0,,,,
293,,,n,irrelevant,numbers,2017_Jun_18_1026,ring,b,ilya_ring_1task_long,119.94192761299999,r,keyboard,524.2163925230001,,,,,2.0,10,middle,0.0,0.0,1616.09385188,none,282.0,2.36619980199,0.0,3.0,3.0,,0.0,6.0,41.0,5.0,1.0,,,,
294,,,n,irrelevant,numbers,2017_Jun_18_1026,ring,b,ilya_ring_1task_long,119.94192761299999,r,keyboard,184.104236157,,,,,1.0,10,index,1282.54720968,0.0,0.0,none,283.0,2.04090368501,0.0,3.0,3.0,,0.0,2.0,42.0,5.0,2.0,,,,
295,,,n,incompatible,numbers,2017_Jun_18_1026,middle,m,ilya_ring_1task_long,119.94192761299999,r,keyboard,896.488435455,,,,,1.0,10,index,1882.84121369,0.0,0.0,none,284.0,2.75789796189,0.0,3.0,3.0,,0.0,1.0,43.0,5.0,3.0,,,,
296,,,n,compatible,numbers,2017_Jun_18_1026,index,i,ilya_ring_1task_long,119.94192761299999,r,keyboard,433.959907602,,,,,1.0,10,index,1407.54026708,0.0,0.0,none,285.0,2.2826003356599998,0.0,3.0,3.0,,0.0,0.0,44.0,5.0,4.0,,,,
297,,,n,incompatible,numbers,2017_Jun_18_1026,index,i,ilya_ring_1task_long,119.94192761299999,r,keyboard,22.492537765300003,,,,,2.0,10,middle,0.0,0.0,807.766958055,none,286.0,1.8744470068299999,0.0,3.0,3.0,,0.0,4.0,45.0,5.0,5.0,,,,
298,,,n,baseline,numbers,2017_Jun_18_1026,none,0,ilya_ring_1task_long,119.94192761299999,r,keyboard,31.2974421884,,,,,2.0,10,middle,0.0,0.0,1157.7729951,none,287.0,1.8828215933,0.0,3.0,3.0,,0.0,7.0,46.0,5.0,6.0,,,,
299,,,n,baseline,numbers,2017_Jun_18_1026,none,0,ilya_ring_1task_long,119.94192761299999,r,keyboard,100.368735086,,,,,1.0,10,index,1124.46330685,0.0,0.0,none,288.0,1.9494971142900002,0.0,3.0,3.0,,0.0,3.0,47.0,5.0,7.0,,,,
300,,,n,incompatible,numbers,2017_Jun_18_1026,index,i,ilya_ring_1task_long,119.94192761299999,r,keyboard,141.652886953,,,,,2.0,10,middle,0.0,0.0,949.431008669,none,289.0,1.99950254763,0.0,3.0,3.0,,0.0,4.0,48.0,6.0,0.0,,,,
301,,,n,baseline,numbers,2017_Jun_18_1026,none,0,ilya_ring_1task_long,119.94192761299999,r,keyboard,386.61794499,,,,,2.0,10,middle,0.0,0.0,1424.48051242,none,290.0,2.22453424211,0.0,3.0,3.0,,0.0,7.0,49.0,6.0,1.0,,,,
302,,,n,baseline,numbers,2017_Jun_18_1026,none,0,ilya_ring_1task_long,119.94192761299999,r,keyboard,57.8880157555,,,,,1.0,10,index,1066.06487407,0.0,0.0,none,291.0,1.91609717225,0.0,3.0,3.0,,0.0,3.0,50.0,6.0,2.0,,,,
303,,,n,irrelevant,numbers,2017_Jun_18_1026,ring,b,ilya_ring_1task_long,119.94192761299999,r,keyboard,240.03334889,,,,,2.0,10,middle,0.0,0.0,1024.49651059,none,292.0,2.07450345319,0.0,3.0,3.0,,0.0,6.0,51.0,6.0,3.0,,,,
304,,,n,incompatible,numbers,2017_Jun_18_1026,middle,m,ilya_ring_1task_long,119.94192761299999,r,keyboard,795.2141316860001,,,,,1.0,10,index,1782.80800995,0.0,0.0,none,293.0,2.6328738137200003,0.0,3.0,3.0,,0.0,1.0,52.0,6.0,4.0,,,,
305,,,n,compatible,numbers,2017_Jun_18_1026,middle,m,ilya_ring_1task_long,119.94192761299999,r,keyboard,133.339265007,,,,,2.0,10,middle,0.0,0.0,1066.17082418,none,294.0,1.9744892661400002,0.0,3.0,3.0,,0.0,5.0,53.0,6.0,5.0,,,,
306,,,n,compatible,numbers,2017_Jun_18_1026,index,i,ilya_ring_1task_long,119.94192761299999,r,keyboard,40.7753716231,,,,,1.0,10,index,941.060346285,0.0,0.0,none,295.0,1.8911122648599996,0.0,3.0,3.0,,0.0,0.0,54.0,6.0,6.0,,,,
307,,,n,irrelevant,numbers,2017_Jun_18_1026,ring,b,ilya_ring_1task_long,119.94192761299999,r,keyboard,229.96667574,,,,,1.0,10,index,1291.08841854,0.0,0.0,none,296.0,2.06614184637,0.0,3.0,3.0,,0.0,2.0,55.0,6.0,7.0,,,,
308,,,n,compatible,numbers,2017_Jun_18_1026,middle,m,ilya_ring_1task_long,119.94192761299999,r,keyboard,1583.86047228,,,,,2.0,10,middle,0.0,0.0,2424.54571249,none,297.0,3.4245710680699997,0.0,3.0,3.0,,0.0,5.0,56.0,7.0,0.0,,,,
309,,,n,baseline,numbers,2017_Jun_18_1026,none,0,ilya_ring_1task_long,119.94192761299999,r,keyboard,253.730808323,,,,,2.0,10,middle,0.0,0.0,1207.76786361,none,298.0,2.10778657845,0.0,3.0,3.0,,0.0,7.0,57.0,7.0,1.0,,,,
310,,,n,incompatible,numbers,2017_Jun_18_1026,index,i,ilya_ring_1task_long,119.94192761299999,r,keyboard,479.136251393,,,,,2.0,10,middle,0.0,0.0,1407.8644562999998,none,299.0,2.3328946415200003,0.0,3.0,3.0,,0.0,4.0,58.0,7.0,2.0,,,,
311,,,n,irrelevant,numbers,2017_Jun_18_1026,ring,b,ilya_ring_1task_long,119.94192761299999,r,keyboard,108.311174763,,,,,1.0,10,index,1024.39539011,0.0,0.0,none,300.0,1.9494047475299998,0.0,3.0,3.0,,0.0,2.0,59.0,7.0,3.0,,,,
312,,,n,baseline,numbers,2017_Jun_18_1026,none,0,ilya_ring_1task_long,119.94192761299999,r,keyboard,496.438884705,,,,,1.0,10,index,1441.06789259,0.0,0.0,none,301.0,2.3411032092900004,0.0,3.0,3.0,,0.0,3.0,60.0,7.0,4.0,,,,
313,,,n,compatible,numbers,2017_Jun_18_1026,index,i,ilya_ring_1task_long,119.94192761299999,r,keyboard,1152.89830329,,,,,1.0,10,index,2107.92784526,0.0,0.0,none,302.0,3.0078892081800004,0.0,3.0,3.0,,0.0,0.0,61.0,7.0,5.0,,,,
314,,,n,incompatible,numbers,2017_Jun_18_1026,middle,m,ilya_ring_1task_long,119.94192761299999,r,keyboard,27.5569889348,,,,,1.0,10,index,1132.78537104,0.0,0.0,none,303.0,1.8828342710900003,0.0,3.0,3.0,,0.0,1.0,62.0,7.0,6.0,,,,
315,,,n,irrelevant,numbers,2017_Jun_18_1026,ring,b,ilya_ring_1task_long,119.94192761299999,r,keyboard,870.762443993,,,,,2.0,10,middle,0.0,0.0,1782.67760981,none,304.0,2.71611709449,0.0,3.0,3.0,,0.0,6.0,63.0,7.0,7.0,,,,
316,,,n,baseline,numbers,2017_Jun_18_1026,none,0,ilya_ring_1task_long,119.94192761299999,r,keyboard,116.977290369,,,,,2.0,10,middle,0.0,0.0,1199.40535124,none,305.0,1.95774220618,0.0,3.0,3.0,,0.0,7.0,64.0,8.0,0.0,,,,
317,,,n,baseline,numbers,2017_Jun_18_1026,none,0,ilya_ring_1task_long,119.94192761299999,r,keyboard,544.353585527,,,,,1.0,10,index,1474.48111613,0.0,0.0,none,306.0,2.3994898698400005,0.0,3.0,3.0,,0.0,3.0,65.0,8.0,1.0,,,,
318,,,n,incompatible,numbers,2017_Jun_18_1026,middle,m,ilya_ring_1task_long,119.94192761299999,r,keyboard,72.32987106819999,,,,,1.0,10,index,1049.46481611,0.0,0.0,none,307.0,1.9078729081599999,0.0,3.0,3.0,,0.0,1.0,66.0,8.0,2.0,,,,
319,,,n,irrelevant,numbers,2017_Jun_18_1026,ring,b,ilya_ring_1task_long,119.94192761299999,r,keyboard,1014.67108713,,,,,1.0,10,index,1974.29789186,0.0,0.0,none,308.0,2.8576679505400002,0.0,3.0,3.0,,0.0,2.0,67.0,8.0,3.0,,,,
320,,,n,incompatible,numbers,2017_Jun_18_1026,index,i,ilya_ring_1task_long,119.94192761299999,r,keyboard,988.260419309,,,,,2.0,10,middle,0.0,0.0,1849.45183647,none,309.0,2.8411874260500003,0.0,3.0,3.0,,0.0,4.0,68.0,8.0,4.0,,,,
321,,,n,compatible,numbers,2017_Jun_18_1026,index,i,ilya_ring_1task_long,119.94192761299999,r,keyboard,107.384191965,,,,,1.0,10,index,1515.93326652,0.0,0.0,none,310.0,1.9660186906900001,0.0,3.0,3.0,,0.0,0.0,69.0,8.0,5.0,,,,
322,,,n,compatible,numbers,2017_Jun_18_1026,middle,m,ilya_ring_1task_long,119.94192761299999,r,keyboard,266.987865461,,,,,2.0,10,middle,0.0,0.0,1249.27646036,none,311.0,2.14131058173,0.0,3.0,3.0,,0.0,5.0,70.0,8.0,6.0,,,,
323,,,n,irrelevant,numbers,2017_Jun_18_1026,ring,b,ilya_ring_1task_long,119.94192761299999,r,keyboard,332.065905382,,,,,2.0,10,middle,0.0,0.0,1256.34915844,none,312.0,2.1814059066400002,0.0,3.0,3.0,,0.0,6.0,71.0,8.0,7.0,,,,
324,,,n,compatible,numbers,2017_Jun_18_1026,index,i,ilya_ring_1task_long,119.94192761299999,r,keyboard,51.7599999913,,,,,1.0,10,index,1057.79533216,0.0,0.0,none,313.0,1.90782732849,0.0,3.0,3.0,,0.0,0.0,72.0,9.0,0.0,,,,
325,,,n,baseline,numbers,2017_Jun_18_1026,none,0,ilya_ring_1task_long,119.94192761299999,r,keyboard,61.7005503927,,,,,2.0,10,middle,0.0,0.0,1049.41893458,none,314.0,1.8994083697599997,0.0,3.0,3.0,,0.0,7.0,73.0,9.0,1.0,,,,
326,,,n,compatible,numbers,2017_Jun_18_1026,middle,m,ilya_ring_1task_long,119.94192761299999,r,keyboard,4.3292580774800005,,,,,2.0,10,middle,0.0,0.0,899.5073772669999,none,315.0,1.8495312235900003,0.0,3.0,3.0,,0.0,5.0,74.0,9.0,2.0,,,,
327,,,n,irrelevant,numbers,2017_Jun_18_1026,ring,b,ilya_ring_1task_long,119.94192761299999,r,keyboard,48.132686488100006,,,,,1.0,10,index,924.450327208,0.0,0.0,none,316.0,1.8994699475999999,0.0,3.0,3.0,,0.0,2.0,75.0,9.0,3.0,,,,
328,,,n,irrelevant,numbers,2017_Jun_18_1026,ring,b,ilya_ring_1task_long,119.94192761299999,r,keyboard,307.039718669,,,,,2.0,10,middle,0.0,0.0,1249.42738644,none,317.0,2.14110320929,0.0,3.0,3.0,,0.0,6.0,76.0,9.0,4.0,,,,
329,,,n,incompatible,numbers,2017_Jun_18_1026,index,i,ilya_ring_1task_long,119.94192761299999,r,keyboard,329.230977323,,,,,2.0,10,middle,0.0,0.0,1199.37607157,none,318.0,2.1744325179299997,0.0,3.0,3.0,,0.0,4.0,77.0,9.0,5.0,,,,
330,,,n,baseline,numbers,2017_Jun_18_1026,none,0,ilya_ring_1task_long,119.94192761299999,r,keyboard,1539.06423832,,,,,1.0,10,index,2507.75518582,0.0,0.0,none,319.0,3.3828255173699997,0.0,3.0,3.0,,0.0,3.0,78.0,9.0,6.0,,,,
331,,,n,incompatible,numbers,2017_Jun_18_1026,middle,m,ilya_ring_1task_long,119.94192761299999,r,keyboard,1347.41217861,,,,,1.0,10,index,2299.5116031999996,0.0,0.0,none,320.0,3.1995239791400003,0.0,3.0,3.0,,0.0,1.0,79.0,9.0,7.0,,,,
332,,,,,,2017_Jun_18_1026,,,ilya_ring_1task_long,119.94192761299999,r,,,space,5.85020465577,,,,10,,,,,,,,0.0,3.0,3.0,,0.0,,,,,,,,
333,,,n,incompatible,numbers,2017_Jun_18_1026,middle,m,ilya_ring_1task_long,119.94192761299999,r,keyboard,1032.05153644,,,,,1.0,10,index,1975.59766729,0.0,0.0,none,321.0,2.87558800802,0.0,4.0,4.0,,0.0,1.0,0.0,0.0,0.0,,,,
334,,,n,baseline,numbers,2017_Jun_18_1026,none,0,ilya_ring_1task_long,119.94192761299999,r,keyboard,80.0157057645,,,,,2.0,10,middle,0.0,0.0,999.2529158919999,none,322.0,1.91603921663,0.0,4.0,4.0,,0.0,7.0,1.0,0.0,1.0,,,,
335,,,n,compatible,numbers,2017_Jun_18_1026,middle,m,ilya_ring_1task_long,119.94192761299999,r,keyboard,364.05255579199996,,,,,2.0,10,middle,0.0,0.0,1341.10019077,none,323.0,2.22447175871,0.0,4.0,4.0,,0.0,5.0,2.0,0.0,2.0,,,,
336,,,n,irrelevant,numbers,2017_Jun_18_1026,ring,b,ilya_ring_1task_long,119.94192761299999,r,keyboard,302.03406261,,,,,1.0,10,index,1299.22182512,0.0,0.0,none,324.0,2.14924476588,0.0,4.0,4.0,,0.0,2.0,3.0,0.0,3.0,,,,
337,,,n,incompatible,numbers,2017_Jun_18_1026,index,i,ilya_ring_1task_long,119.94192761299999,r,keyboard,185.014347498,,,,,2.0,10,middle,0.0,0.0,1174.48654947,none,325.0,2.02453001618,0.0,4.0,4.0,,0.0,4.0,4.0,0.0,4.0,,,,
338,,,n,irrelevant,numbers,2017_Jun_18_1026,ring,b,ilya_ring_1task_long,119.94192761299999,r,keyboard,428.64570749300003,,,,,2.0,10,middle,0.0,0.0,1299.53816619,none,326.0,2.2661563352700003,0.0,4.0,4.0,,0.0,6.0,5.0,0.0,5.0,,,,
339,,,n,baseline,numbers,2017_Jun_18_1026,none,0,ilya_ring_1task_long,119.94192761299999,r,keyboard,556.552984753,,,,,1.0,10,index,1582.89101929,0.0,0.0,none,327.0,2.40791003598,0.0,4.0,4.0,,0.0,3.0,6.0,0.0,6.0,,,,
340,,,n,compatible,numbers,2017_Jun_18_1026,index,i,ilya_ring_1task_long,119.94192761299999,r,keyboard,259.23731518200003,,,,,1.0,10,index,1182.68787279,0.0,0.0,none,328.0,2.11608117408,0.0,4.0,4.0,,0.0,0.0,7.0,0.0,7.0,,,,
341,,,n,irrelevant,numbers,2017_Jun_18_1026,ring,b,ilya_ring_1task_long,119.94192761299999,r,keyboard,649.589696991,,,,,2.0,10,middle,0.0,0.0,1557.74945063,none,329.0,2.49957559586,0.0,4.0,4.0,,0.0,6.0,8.0,1.0,0.0,,,,
342,,,n,irrelevant,numbers,2017_Jun_18_1026,ring,b,ilya_ring_1task_long,119.94192761299999,r,keyboard,86.1046768367,,,,,1.0,10,index,1107.25260197,0.0,0.0,none,330.0,1.9322682982799997,0.0,4.0,4.0,,0.0,2.0,9.0,1.0,1.0,,,,
343,,,n,compatible,numbers,2017_Jun_18_1026,middle,m,ilya_ring_1task_long,119.94192761299999,r,keyboard,1038.67260076,,,,,2.0,10,middle,0.0,0.0,1957.8569100000002,none,331.0,2.8912040279199998,0.0,4.0,4.0,,0.0,5.0,10.0,1.0,2.0,,,,
344,,,n,baseline,numbers,2017_Jun_18_1026,none,0,ilya_ring_1task_long,119.94192761299999,r,keyboard,434.06230690900003,,,,,1.0,10,index,1357.7735988,0.0,0.0,none,332.0,2.2828303470099995,0.0,4.0,4.0,,0.0,3.0,11.0,1.0,3.0,,,,
345,,,n,baseline,numbers,2017_Jun_18_1026,none,0,ilya_ring_1task_long,119.94192761299999,r,keyboard,184.04138619900002,,,,,2.0,10,middle,0.0,0.0,1032.69360798,none,333.0,2.0410917389099996,0.0,4.0,4.0,,0.0,7.0,12.0,1.0,4.0,,,,
346,,,n,compatible,numbers,2017_Jun_18_1026,index,i,ilya_ring_1task_long,119.94192761299999,r,keyboard,377.600549118,,,,,1.0,10,index,1324.47326797,0.0,0.0,none,334.0,2.2244913791,0.0,4.0,4.0,,0.0,0.0,13.0,1.0,5.0,,,,
347,,,n,incompatible,numbers,2017_Jun_18_1026,index,i,ilya_ring_1task_long,119.94192761299999,r,keyboard,201.785787464,,,,,2.0,10,middle,0.0,0.0,999.373656758,none,335.0,2.04941712347,0.0,4.0,4.0,,0.0,4.0,14.0,1.0,6.0,,,,
348,,,n,incompatible,numbers,2017_Jun_18_1026,middle,m,ilya_ring_1task_long,119.94192761299999,r,keyboard,253.311304363,,,,,1.0,10,index,1199.48685132,0.0,0.0,none,336.0,2.09115814639,0.0,4.0,4.0,,0.0,1.0,15.0,1.0,7.0,,,,
349,,,n,compatible,numbers,2017_Jun_18_1026,index,i,ilya_ring_1task_long,119.94192761299999,r,keyboard,112.48972808,,,,,1.0,10,index,999.398106783,0.0,0.0,none,337.0,1.9494476105400003,0.0,4.0,4.0,,0.0,0.0,16.0,2.0,0.0,,,,
350,,,n,compatible,numbers,2017_Jun_18_1026,middle,m,ilya_ring_1task_long,119.94192761299999,r,keyboard,142.415409214,,,,,2.0,10,middle,0.0,0.0,999.4319142260001,none,338.0,1.98272168023,0.0,4.0,4.0,,0.0,5.0,17.0,2.0,1.0,,,,
351,,,n,baseline,numbers,2017_Jun_18_1026,none,0,ilya_ring_1task_long,119.94192761299999,r,keyboard,44.7029684129,,,,,2.0,10,middle,0.0,0.0,966.175050107,none,339.0,1.89953394026,0.0,4.0,4.0,,0.0,7.0,18.0,2.0,2.0,,,,
352,,,n,irrelevant,numbers,2017_Jun_18_1026,ring,b,ilya_ring_1task_long,119.94192761299999,r,keyboard,65.6701111946,,,,,2.0,10,middle,0.0,0.0,1057.75186545,none,340.0,1.9077612228599998,0.0,4.0,4.0,,0.0,6.0,19.0,2.0,3.0,,,,
353,,,n,incompatible,numbers,2017_Jun_18_1026,middle,m,ilya_ring_1task_long,119.94192761299999,r,keyboard,54.3626841083,,,,,1.0,10,index,949.2707251689999,0.0,0.0,none,341.0,1.8992595566400001,0.0,4.0,4.0,,0.0,1.0,20.0,2.0,4.0,,,,
354,,,n,irrelevant,numbers,2017_Jun_18_1026,ring,b,ilya_ring_1task_long,119.94192761299999,r,keyboard,1003.79335165,,,,,1.0,10,index,0.0,0.0,1874.48564391,none,342.0,2.8496673589099997,0.0,4.0,4.0,,0.0,2.0,21.0,2.0,5.0,,,,
355,,,n,incompatible,numbers,2017_Jun_18_1026,index,i,ilya_ring_1task_long,119.94192761299999,r,keyboard,179.882716512,,,,,2.0,10,middle,0.0,0.0,1199.2824974000002,none,343.0,2.0242975900099998,0.0,4.0,4.0,,0.0,4.0,22.0,2.0,6.0,,,,
356,,,n,baseline,numbers,2017_Jun_18_1026,none,0,ilya_ring_1task_long,119.94192761299999,r,keyboard,901.534816585,,,,,1.0,10,index,1857.77842844,0.0,0.0,none,344.0,2.75781072662,0.0,4.0,4.0,,0.0,3.0,23.0,2.0,7.0,,,,
357,,,n,compatible,numbers,2017_Jun_18_1026,index,i,ilya_ring_1task_long,119.94192761299999,r,keyboard,525.626167738,,,,,1.0,10,index,1466.2432687,0.0,0.0,none,345.0,2.37479443868,0.0,4.0,4.0,,0.0,0.0,24.0,3.0,0.0,,,,
358,,,n,baseline,numbers,2017_Jun_18_1026,none,0,ilya_ring_1task_long,119.94192761299999,r,keyboard,132.405012129,,,,,1.0,10,index,1107.41348917,0.0,0.0,none,346.0,1.9825776967500002,0.0,4.0,4.0,,0.0,3.0,25.0,3.0,1.0,,,,
359,,,n,incompatible,numbers,2017_Jun_18_1026,index,i,ilya_ring_1task_long,119.94192761299999,r,keyboard,1503.66023862,,,,,2.0,10,middle,0.0,0.0,2391.06819444,none,347.0,3.34109988892,0.0,4.0,4.0,,0.0,4.0,26.0,3.0,2.0,,,,
360,,,n,baseline,numbers,2017_Jun_18_1026,none,0,ilya_ring_1task_long,119.94192761299999,r,keyboard,1127.95328827,,,,,2.0,10,middle,0.0,0.0,2249.51673468,none,348.0,2.97452096061,0.0,4.0,4.0,,0.0,7.0,27.0,3.0,3.0,,,,
361,,,n,irrelevant,numbers,2017_Jun_18_1026,ring,b,ilya_ring_1task_long,119.94192761299999,r,keyboard,361.845762584,,,,,2.0,10,middle,0.0,0.0,1324.52579025,none,349.0,2.2078644563,0.0,4.0,4.0,,0.0,6.0,28.0,3.0,4.0,,,,
362,,,n,compatible,numbers,2017_Jun_18_1026,middle,m,ilya_ring_1task_long,119.94192761299999,r,keyboard,458.635548117,,,,,2.0,10,middle,0.0,0.0,1382.73375432,none,350.0,2.30778265437,0.0,4.0,4.0,,0.0,5.0,29.0,3.0,5.0,,,,
363,,,n,incompatible,numbers,2017_Jun_18_1026,middle,m,ilya_ring_1task_long,119.94192761299999,r,keyboard,88.1500428997,,,,,1.0,10,index,999.48836058,0.0,0.0,none,351.0,1.9245282050699999,0.0,4.0,4.0,,0.0,1.0,30.0,3.0,6.0,,,,
364,,,n,irrelevant,numbers,2017_Jun_18_1026,ring,b,ilya_ring_1task_long,119.94192761299999,r,keyboard,313.17389967,,,,,1.0,10,index,1291.0419333,0.0,0.0,none,352.0,2.14940927531,0.0,4.0,4.0,,0.0,2.0,31.0,3.0,7.0,,,,
365,,,n,incompatible,numbers,2017_Jun_18_1026,index,i,ilya_ring_1task_long,119.94192761299999,r,keyboard,305.569567616,,,,,2.0,10,middle,0.0,0.0,1199.44338461,none,353.0,2.15784091183,0.0,4.0,4.0,,0.0,4.0,32.0,4.0,0.0,,,,
366,,,n,baseline,numbers,2017_Jun_18_1026,none,0,ilya_ring_1task_long,119.94192761299999,r,keyboard,30.3988031418,,,,,1.0,10,index,1024.43040497,0.0,0.0,none,354.0,1.88285540074,0.0,4.0,4.0,,0.0,3.0,33.0,4.0,1.0,,,,
367,,,n,baseline,numbers,2017_Jun_18_1026,none,0,ilya_ring_1task_long,119.94192761299999,r,keyboard,188.340556083,,,,,2.0,10,middle,0.0,0.0,1041.00842771,none,355.0,2.04111286856,0.0,4.0,4.0,,0.0,7.0,34.0,4.0,2.0,,,,
368,,,n,incompatible,numbers,2017_Jun_18_1026,middle,m,ilya_ring_1task_long,119.94192761299999,r,keyboard,163.183778331,,,,,1.0,10,index,1182.6480283,0.0,0.0,none,356.0,2.00771503948,0.0,4.0,4.0,,0.0,1.0,35.0,4.0,3.0,,,,
369,,,n,irrelevant,numbers,2017_Jun_18_1026,ring,b,ilya_ring_1task_long,119.94192761299999,r,keyboard,63.0738647358,,,,,2.0,10,middle,0.0,0.0,924.3718456460001,none,357.0,1.8994095771700001,0.0,4.0,4.0,,0.0,6.0,36.0,4.0,4.0,,,,
370,,,n,irrelevant,numbers,2017_Jun_18_1026,ring,b,ilya_ring_1task_long,119.94192761299999,r,keyboard,117.665195919,,,,,1.0,10,index,1082.70930429,0.0,0.0,none,358.0,1.95778325807,0.0,4.0,4.0,,0.0,2.0,37.0,4.0,5.0,,,,
371,,,n,compatible,numbers,2017_Jun_18_1026,index,i,ilya_ring_1task_long,119.94192761299999,r,keyboard,148.506845253,,,,,1.0,10,index,1074.44127164,0.0,0.0,none,359.0,1.99950013282,0.0,4.0,4.0,,0.0,0.0,38.0,4.0,6.0,,,,
372,,,n,compatible,numbers,2017_Jun_18_1026,middle,m,ilya_ring_1task_long,119.94192761299999,r,keyboard,171.742410358,,,,,2.0,10,middle,0.0,0.0,949.423462365,none,360.0,2.02448866243,0.0,4.0,4.0,,0.0,5.0,39.0,4.0,7.0,,,,
373,,,n,incompatible,numbers,2017_Jun_18_1026,index,i,ilya_ring_1task_long,119.94192761299999,r,keyboard,147.433969686,,,,,2.0,10,middle,0.0,0.0,1057.73465987,none,361.0,1.9828261210799998,0.0,4.0,4.0,,0.0,4.0,40.0,5.0,0.0,,,,
374,,,n,irrelevant,numbers,2017_Jun_18_1026,ring,b,ilya_ring_1task_long,119.94192761299999,r,keyboard,164.823847137,,,,,1.0,10,index,1024.43553645,0.0,0.0,none,362.0,1.99944368646,0.0,4.0,4.0,,0.0,2.0,41.0,5.0,1.0,,,,
375,,,n,baseline,numbers,2017_Jun_18_1026,none,0,ilya_ring_1task_long,119.94192761299999,r,keyboard,2000.0,,,,,2.0,10,middle,0.0,0.0,2882.92573229,none,363.0,3.84116176861,0.0,4.0,4.0,,0.0,7.0,42.0,5.0,2.0,,,,
376,,,n,irrelevant,numbers,2017_Jun_18_1026,ring,b,ilya_ring_1task_long,119.94192761299999,r,keyboard,126.29094759799999,,,,,2.0,10,middle,0.0,0.0,1066.05159257,none,364.0,1.9660546110900003,0.0,4.0,4.0,,0.0,6.0,43.0,5.0,3.0,,,,
377,,,n,incompatible,numbers,2017_Jun_18_1026,middle,m,ilya_ring_1task_long,119.94192761299999,r,keyboard,150.068360979,,,,,1.0,10,index,1132.76786361,0.0,0.0,none,365.0,2.0077793339900003,0.0,4.0,4.0,,0.0,1.0,44.0,5.0,4.0,,,,
378,,,n,compatible,numbers,2017_Jun_18_1026,middle,m,ilya_ring_1task_long,119.94192761299999,r,keyboard,254.09207800099998,,,,,2.0,10,middle,0.0,0.0,1141.00631475,none,366.0,2.10800119533,0.0,4.0,4.0,,0.0,5.0,45.0,5.0,5.0,,,,
379,,,n,baseline,numbers,2017_Jun_18_1026,none,0,ilya_ring_1task_long,119.94192761299999,r,keyboard,134.981454149,,,,,1.0,10,index,1115.77509599,0.0,0.0,none,367.0,1.9909872980599999,0.0,4.0,4.0,,0.0,3.0,46.0,5.0,6.0,,,,
380,,,n,compatible,numbers,2017_Jun_18_1026,index,i,ilya_ring_1task_long,119.94192761299999,r,keyboard,789.322988743,,,,,1.0,10,index,1699.12010094,0.0,0.0,none,368.0,2.62412372317,0.0,4.0,4.0,,0.0,0.0,47.0,5.0,7.0,,,,
381,,,n,incompatible,numbers,2017_Jun_18_1026,middle,m,ilya_ring_1task_long,119.94192761299999,r,keyboard,142.909807901,,,,,1.0,10,index,1249.48715317,0.0,0.0,none,369.0,1.99953424211,0.0,4.0,4.0,,0.0,1.0,48.0,6.0,0.0,,,,
382,,,n,irrelevant,numbers,2017_Jun_18_1026,ring,b,ilya_ring_1task_long,119.94192761299999,r,keyboard,31.0432126298,,,,,1.0,10,index,1082.72681172,0.0,0.0,none,370.0,1.8661062278099998,0.0,4.0,4.0,,0.0,2.0,49.0,6.0,1.0,,,,
383,,,n,baseline,numbers,2017_Jun_18_1026,none,0,ilya_ring_1task_long,119.94192761299999,r,keyboard,301.803111247,,,,,1.0,10,index,1249.003586,0.0,0.0,none,371.0,2.14902018787,0.0,4.0,4.0,,0.0,3.0,50.0,6.0,2.0,,,,
384,,,n,baseline,numbers,2017_Jun_18_1026,none,0,ilya_ring_1task_long,119.94192761299999,r,keyboard,580.7363847180001,,,,,2.0,10,middle,0.0,0.0,1507.79865253,none,372.0,2.4328092173599996,0.0,4.0,4.0,,0.0,7.0,51.0,6.0,3.0,,,,
385,,,n,incompatible,numbers,2017_Jun_18_1026,index,i,ilya_ring_1task_long,119.94192761299999,r,keyboard,715.740448795,,,,,2.0,10,middle,0.0,0.0,1699.50134022,none,373.0,2.56621730941,0.0,4.0,4.0,,0.0,4.0,52.0,6.0,4.0,,,,
386,,,n,compatible,numbers,2017_Jun_18_1026,middle,m,ilya_ring_1task_long,119.94192761299999,r,keyboard,149.905447984,,,,,2.0,10,middle,0.0,0.0,1099.34679192,none,374.0,1.9993727512000001,0.0,4.0,4.0,,0.0,5.0,53.0,6.0,5.0,,,,
387,,,n,compatible,numbers,2017_Jun_18_1026,index,i,ilya_ring_1task_long,119.94192761299999,r,keyboard,59.305434509399994,,,,,1.0,10,index,1016.09505928,0.0,0.0,none,375.0,1.9161460723,0.0,4.0,4.0,,0.0,0.0,54.0,6.0,6.0,,,,
388,,,n,irrelevant,numbers,2017_Jun_18_1026,ring,b,ilya_ring_1task_long,119.94192761299999,r,keyboard,118.65697411,,,,,2.0,10,middle,0.0,0.0,932.691495013,none,376.0,1.9577367728400001,0.0,4.0,4.0,,0.0,6.0,55.0,6.0,7.0,,,,
389,,,n,compatible,numbers,2017_Jun_18_1026,index,i,ilya_ring_1task_long,119.94192761299999,r,keyboard,202.387554697,,,,,1.0,10,index,1199.37697713,0.0,0.0,none,377.0,2.04940535123,0.0,4.0,4.0,,0.0,0.0,56.0,7.0,0.0,,,,
390,,,n,compatible,numbers,2017_Jun_18_1026,middle,m,ilya_ring_1task_long,119.94192761299999,r,keyboard,25.663171415900003,,,,,2.0,10,middle,0.0,0.0,874.401125305,none,378.0,1.87450858468,0.0,4.0,4.0,,0.0,5.0,57.0,7.0,1.0,,,,
391,,,n,incompatible,numbers,2017_Jun_18_1026,middle,m,ilya_ring_1task_long,119.94192761299999,r,keyboard,105.458368908,,,,,1.0,10,index,1182.67791167,0.0,0.0,none,379.0,1.95766523387,0.0,4.0,4.0,,0.0,1.0,58.0,7.0,2.0,,,,
392,,,n,irrelevant,numbers,2017_Jun_18_1026,ring,b,ilya_ring_1task_long,119.94192761299999,r,keyboard,669.922813273,,,,,2.0,10,middle,0.0,0.0,1499.51130135,none,380.0,2.50788166188,0.0,4.0,4.0,,0.0,6.0,59.0,7.0,3.0,,,,
393,,,n,irrelevant,numbers,2017_Jun_18_1026,ring,b,ilya_ring_1task_long,119.94192761299999,r,keyboard,45.5584054848,,,,,1.0,10,index,949.4500253560001,0.0,0.0,none,381.0,1.8994771920500002,0.0,4.0,4.0,,0.0,2.0,60.0,7.0,4.0,,,,
394,,,n,baseline,numbers,2017_Jun_18_1026,none,0,ilya_ring_1task_long,119.94192761299999,r,keyboard,196.54286310700002,,,,,2.0,10,middle,0.0,0.0,1024.45062906,none,382.0,2.04951039579,0.0,4.0,4.0,,0.0,7.0,61.0,7.0,5.0,,,,
395,,,n,baseline,numbers,2017_Jun_18_1026,none,0,ilya_ring_1task_long,119.94192761299999,r,keyboard,263.53045016,,,,,1.0,10,index,1249.43976238,0.0,0.0,none,383.0,2.09943614016,0.0,4.0,4.0,,0.0,3.0,62.0,7.0,6.0,,,,
396,,,n,incompatible,numbers,2017_Jun_18_1026,index,i,ilya_ring_1task_long,119.94192761299999,r,keyboard,116.572234739,,,,,2.0,10,middle,0.0,0.0,982.784767332,none,384.0,1.9661862186400003,0.0,4.0,4.0,,0.0,4.0,63.0,7.0,7.0,,,,
397,,,n,compatible,numbers,2017_Jun_18_1026,middle,m,ilya_ring_1task_long,119.94192761299999,r,keyboard,2.7804432298500004,,,,,2.0,10,middle,0.0,0.0,949.370940089,none,385.0,1.8493821086200002,0.0,4.0,4.0,,0.0,5.0,64.0,8.0,0.0,,,,
398,,,n,irrelevant,numbers,2017_Jun_18_1026,ring,b,ilya_ring_1task_long,119.94192761299999,r,keyboard,85.6673063855,,,,,2.0,10,middle,0.0,0.0,874.34618821,none,386.0,1.9244089734599998,0.0,4.0,4.0,,0.0,6.0,65.0,8.0,1.0,,,,
399,,,n,compatible,numbers,2017_Jun_18_1026,index,i,ilya_ring_1task_long,119.94192761299999,r,keyboard,196.47788535,,,,,1.0,10,index,1158.29248267,0.0,0.0,none,387.0,2.04118350197,0.0,4.0,4.0,,0.0,0.0,66.0,8.0,2.0,,,,
400,,,n,incompatible,numbers,2017_Jun_18_1026,index,i,ilya_ring_1task_long,119.94192761299999,r,keyboard,1387.71189452,,,,,2.0,10,middle,0.0,0.0,2232.74643211,none,388.0,3.24954510879,0.0,4.0,4.0,,0.0,4.0,67.0,8.0,3.0,,,,
401,,,n,irrelevant,numbers,2017_Jun_18_1026,ring,b,ilya_ring_1task_long,119.94192761299999,r,keyboard,324.513823548,,,,,1.0,10,index,1174.21427882,0.0,0.0,none,389.0,2.1825447948599996,0.0,4.0,4.0,,0.0,2.0,68.0,8.0,4.0,,,,
402,,,n,baseline,numbers,2017_Jun_18_1026,none,0,ilya_ring_1task_long,119.94192761299999,r,keyboard,259.383479933,,,,,1.0,10,index,1274.43614016,0.0,0.0,none,390.0,2.09948715317,0.0,4.0,4.0,,0.0,3.0,69.0,8.0,5.0,,,,
403,,,n,incompatible,numbers,2017_Jun_18_1026,middle,m,ilya_ring_1task_long,119.94192761299999,r,keyboard,232.61153086599998,,,,,1.0,10,index,1224.48564391,0.0,0.0,none,391.0,2.0828077081,0.0,4.0,4.0,,0.0,1.0,70.0,8.0,6.0,,,,
404,,,n,baseline,numbers,2017_Jun_18_1026,none,0,ilya_ring_1task_long,119.94192761299999,r,keyboard,15.7321958232,,,,,2.0,10,middle,0.0,0.0,874.4720605639999,none,392.0,1.86617746492,0.0,4.0,4.0,,0.0,7.0,71.0,8.0,7.0,,,,
405,,,n,irrelevant,numbers,2017_Jun_18_1026,ring,b,ilya_ring_1task_long,119.94192761299999,r,keyboard,117.620348673,,,,,1.0,10,index,1166.07815556,0.0,0.0,none,393.0,1.97450586801,0.0,4.0,4.0,,0.0,2.0,72.0,9.0,0.0,,,,
406,,,n,compatible,numbers,2017_Jun_18_1026,middle,m,ilya_ring_1task_long,119.94192761299999,r,keyboard,1031.10228366,,,,,2.0,10,middle,0.0,0.0,1915.85810533,none,394.0,2.86583788124,0.0,4.0,4.0,,0.0,5.0,73.0,9.0,1.0,,,,
407,,,n,baseline,numbers,2017_Jun_18_1026,none,0,ilya_ring_1task_long,119.94192761299999,r,keyboard,285.715490832,,,,,1.0,10,index,1274.62449591,0.0,0.0,none,395.0,2.1245276013599996,0.0,4.0,4.0,,0.0,3.0,74.0,9.0,2.0,,,,
408,,,n,incompatible,numbers,2017_Jun_18_1026,middle,m,ilya_ring_1task_long,119.94192761299999,r,keyboard,314.369189856,,,,,1.0,10,index,1224.36912898,0.0,0.0,none,396.0,2.1494213494,0.0,4.0,4.0,,0.0,1.0,75.0,9.0,3.0,,,,
409,,,n,irrelevant,numbers,2017_Jun_18_1026,ring,b,ilya_ring_1task_long,119.94192761299999,r,keyboard,32.7206459732,,,,,2.0,10,middle,0.0,0.0,1032.68032648,none,397.0,1.8828252155200003,0.0,4.0,4.0,,0.0,6.0,76.0,9.0,4.0,,,,
410,,,n,baseline,numbers,2017_Jun_18_1026,none,0,ilya_ring_1task_long,119.94192761299999,r,keyboard,57.3904071114,,,,,2.0,10,middle,0.0,0.0,974.313588176,none,398.0,1.8993857308400002,0.0,4.0,4.0,,0.0,7.0,77.0,9.0,5.0,,,,
411,,,n,compatible,numbers,2017_Jun_18_1026,index,i,ilya_ring_1task_long,119.94192761299999,r,keyboard,824.491542145,,,,,1.0,10,index,1849.39901234,0.0,0.0,none,399.0,2.67442980126,0.0,4.0,4.0,,0.0,0.0,78.0,9.0,6.0,,,,
412,,,n,incompatible,numbers,2017_Jun_18_1026,index,i,ilya_ring_1task_long,119.94192761299999,r,keyboard,690.543077165,,,,,2.0,10,middle,0.0,0.0,1599.49349207,none,400.0,2.52450737727,0.0,4.0,4.0,,0.0,4.0,79.0,9.0,7.0,,,,
413,,,,,,2017_Jun_18_1026,,,ilya_ring_1task_long,119.94192761299999,r,,,space,4.042015104680001,,,,10,,,,,,,,0.0,4.0,4.0,,0.0,,,,,,,,
0,,,n,irrelevant,numbers,2017_Jun_18_1109,ring,b,ilya_ring_1task_long,120.03884282899999,l,keyboard,499.763829527,,,,,2.0,11,middle,0.0,0.0,0.0,none,,2.35780197291,,,,,,,,,,6.0,0.0,0.0,0.0
1,,,n,baseline,numbers,2017_Jun_18_1109,none,0,ilya_ring_1task_long,120.03884282899999,l,keyboard,220.584663989,,,,,1.0,11,index,0.0,0.0,1024.33622709,none,,2.06604223515,,,,,,,,,,3.0,1.0,0.0,1.0
2,,,n,irrelevant,numbers,2017_Jun_18_1109,ring,b,ilya_ring_1task_long,120.03884282899999,l,keyboard,130.528351518,,,,,1.0,11,index,0.0,0.0,1299.53665693,none,,1.9745695588099998,,,,,,,,,,2.0,2.0,0.0,2.0
3,,,n,compatible,numbers,2017_Jun_18_1109,middle,m,ilya_ring_1task_long,120.03884282899999,l,keyboard,621.304894344,,,,,2.0,11,middle,0.0,2041.29971505,2141.28945208,none,,2.46632235396,,,,,,,,,,5.0,3.0,0.0,3.0
4,,,n,incompatible,numbers,2017_Jun_18_1109,index,i,ilya_ring_1task_long,120.03884282899999,l,keyboard,108.45506043799999,,,,,2.0,11,middle,0.0,1282.84513777,0.0,none,,1.9578967544900001,,,,,,,,,,4.0,4.0,0.0,4.0
5,,,n,baseline,numbers,2017_Jun_18_1109,none,0,ilya_ring_1task_long,120.03884282899999,l,keyboard,56.5099694221,,,,,2.0,11,middle,1257.68545797,0.0,1257.68545797,none,,1.9077458284,,,,,,,,,,7.0,5.0,0.0,5.0
6,,,n,incompatible,numbers,2017_Jun_18_1109,middle,m,ilya_ring_1task_long,120.03884282899999,l,keyboard,371.43773764599996,,,,,1.0,11,index,1649.50798097,0.0,0.0,none,,2.22455114583,,,,,,,,,,1.0,6.0,0.0,6.0
7,,,n,compatible,numbers,2017_Jun_18_1109,index,i,ilya_ring_1task_long,120.03884282899999,l,keyboard,196.571448721,,,,,1.0,11,index,0.0,1591.17505011,0.0,none,,2.04116629639,,,,,,,,,,0.0,7.0,0.0,7.0
8,,,,,,2017_Jun_18_1109,,,ilya_ring_1task_long,120.03884282899999,l,,,,,right,3.59197043056,,11,,,,,,,,,,,,,,,,,,,,
9,,,n,incompatible,numbers,2017_Jun_18_1109,middle,m,ilya_ring_1task_long,120.03884282899999,l,keyboard,665.976974623,,,,,1.0,11,index,1817.46848663,0.0,0.0,none,1.0,2.53435651155,0.0,0.0,0.0,,0.0,1.0,0.0,0.0,0.0,,,,
10,,,n,irrelevant,numbers,2017_Jun_18_1109,ring,b,ilya_ring_1task_long,120.03884282899999,l,keyboard,160.74805315,,,,,1.0,11,index,0.0,1665.36638816,0.0,none,2.0,2.01535220111,0.0,0.0,0.0,,0.0,2.0,1.0,0.0,1.0,,,,
11,,,n,irrelevant,numbers,2017_Jun_18_1109,ring,b,ilya_ring_1task_long,120.03884282899999,l,keyboard,125.28956856200001,,,,,2.0,11,middle,1707.85570259,0.0,0.0,none,3.0,1.9995674458500001,0.0,0.0,0.0,,0.0,6.0,2.0,0.0,2.0,,,,
12,,,n,compatible,numbers,2017_Jun_18_1109,middle,m,ilya_ring_1task_long,120.03884282899999,l,keyboard,18.538911588399998,,,,,2.0,11,middle,0.0,1474.31690855,0.0,none,4.0,1.87475368863,0.0,0.0,0.0,,0.0,5.0,3.0,0.0,3.0,,,,
13,,,n,incompatible,numbers,2017_Jun_18_1109,index,i,ilya_ring_1task_long,120.03884282899999,l,keyboard,165.022961325,,,,,2.0,11,middle,0.0,1115.69601072,0.0,none,5.0,1.9990521842,0.0,0.0,0.0,,0.0,4.0,4.0,0.0,4.0,,,,
14,,,n,compatible,numbers,2017_Jun_18_1109,index,i,ilya_ring_1task_long,120.03884282899999,l,keyboard,97.7251909827,,,,,1.0,11,index,0.0,524.387541958,0.0,none,6.0,1.93280438772,0.0,0.0,0.0,,0.0,0.0,5.0,0.0,5.0,,,,
15,,,n,baseline,numbers,2017_Jun_18_1109,none,0,ilya_ring_1task_long,120.03884282899999,l,keyboard,334.237357293,,,,,2.0,11,middle,732.777221028,0.0,732.777221028,none,7.0,2.17464139963,0.0,0.0,0.0,,0.0,7.0,6.0,0.0,6.0,,,,
16,,,n,baseline,numbers,2017_Jun_18_1109,none,0,ilya_ring_1task_long,120.03884282899999,l,keyboard,76.18667176,,,,,1.0,11,index,0.0,65.66763661979999,0.0,none,8.0,1.9157542681900002,0.0,0.0,0.0,,0.0,3.0,7.0,0.0,7.0,,,,
17,,,n,compatible,numbers,2017_Jun_18_1109,middle,m,ilya_ring_1task_long,120.03884282899999,l,keyboard,5.5945877265499995,,,,,2.0,11,middle,0.0,199.44217719999997,0.0,none,9.0,1.8494427809,0.0,0.0,0.0,,0.0,5.0,8.0,1.0,0.0,,,,
18,,,n,baseline,numbers,2017_Jun_18_1109,none,0,ilya_ring_1task_long,120.03884282899999,l,keyboard,67.3556050798,,,,,1.0,11,index,0.0,199.49017169299998,0.0,none,10.0,1.92459521625,0.0,0.0,0.0,,0.0,3.0,9.0,1.0,1.0,,,,
19,,,n,compatible,numbers,2017_Jun_18_1109,index,i,ilya_ring_1task_long,120.03884282899999,l,keyboard,180.28853169299998,,,,,1.0,11,index,0.0,357.71594503800003,0.0,none,11.0,2.02441682162,0.0,0.0,0.0,,0.0,0.0,10.0,1.0,2.0,,,,
20,,,n,baseline,numbers,2017_Jun_18_1109,none,0,ilya_ring_1task_long,120.03884282899999,l,keyboard,885.2938534010001,,,,,2.0,11,middle,0.0,1024.36611045,0.0,none,12.0,2.7244207457,0.0,0.0,0.0,,0.0,7.0,11.0,1.0,3.0,,,,
21,,,n,incompatible,numbers,2017_Jun_18_1109,middle,m,ilya_ring_1task_long,120.03884282899999,l,keyboard,1106.2536412999998,,,,,1.0,11,index,0.0,2957.88015262,0.0,none,13.0,2.95788015262,0.0,0.0,0.0,,0.0,1.0,12.0,1.0,4.0,,,,
22,,,n,irrelevant,numbers,2017_Jun_18_1109,ring,b,ilya_ring_1task_long,120.03884282899999,l,keyboard,386.657328777,,,,,2.0,11,middle,0.0,1549.42738644,0.0,none,14.0,2.22445545869,0.0,0.0,0.0,,0.0,6.0,13.0,1.0,5.0,,,,
23,,,n,incompatible,numbers,2017_Jun_18_1109,index,i,ilya_ring_1task_long,120.03884282899999,l,keyboard,1038.65870435,,,,,2.0,11,middle,2099.50949023,0.0,2174.51431987,none,15.0,2.87453544952,0.0,0.0,0.0,,0.0,4.0,14.0,1.0,6.0,,,,
24,,,n,irrelevant,numbers,2017_Jun_18_1109,ring,b,ilya_ring_1task_long,120.03884282899999,l,keyboard,772.039369651,,,,,1.0,11,index,0.0,1899.41682162,1899.41682162,none,16.0,2.62445908092,0.0,0.0,0.0,,0.0,2.0,15.0,1.0,7.0,,,,
25,,,n,irrelevant,numbers,2017_Jun_18_1109,ring,b,ilya_ring_1task_long,120.03884282899999,l,keyboard,558.016804875,,,,,2.0,11,middle,0.0,1549.34799932,0.0,none,17.0,2.4161176982,0.0,0.0,0.0,,0.0,6.0,16.0,2.0,0.0,,,,
26,,,n,incompatible,numbers,2017_Jun_18_1109,middle,m,ilya_ring_1task_long,120.03884282899999,l,keyboard,603.029341175,,,,,1.0,11,index,0.0,1349.3310955999998,0.0,none,18.0,2.4577192654099997,0.0,0.0,0.0,,0.0,1.0,17.0,2.0,1.0,,,,
27,,,n,incompatible,numbers,2017_Jun_18_1109,index,i,ilya_ring_1task_long,120.03884282899999,l,keyboard,137.351452914,,,,,2.0,11,middle,0.0,1424.48926614,0.0,none,19.0,1.9744962087400002,0.0,0.0,0.0,,0.0,4.0,18.0,2.0,2.0,,,,
28,,,n,compatible,numbers,2017_Jun_18_1109,middle,m,ilya_ring_1task_long,120.03884282899999,l,keyboard,282.780076715,,,,,2.0,11,middle,0.0,0.0,0.0,none,20.0,2.1328412136900003,0.0,0.0,0.0,,0.0,5.0,19.0,2.0,3.0,,,,
29,,,n,irrelevant,numbers,2017_Jun_18_1109,ring,b,ilya_ring_1task_long,120.03884282899999,l,keyboard,117.731936285,,,,,1.0,11,index,0.0,257.90369708599997,0.0,none,21.0,1.9660811740900002,0.0,0.0,0.0,,0.0,2.0,20.0,2.0,4.0,,,,
30,,,n,compatible,numbers,2017_Jun_18_1109,index,i,ilya_ring_1task_long,120.03884282899999,l,keyboard,41.3461280186,,,,,1.0,11,index,0.0,1499.4913791,0.0,none,22.0,1.8995269976599998,0.0,0.0,0.0,,0.0,0.0,21.0,2.0,5.0,,,,
31,,,n,baseline,numbers,2017_Jun_18_1109,none,0,ilya_ring_1task_long,120.03884282899999,l,keyboard,971.2666384639999,,,,,1.0,11,index,0.0,0.0,0.0,none,23.0,2.8160965685500003,0.0,0.0,0.0,,0.0,3.0,22.0,2.0,6.0,,,,
32,,,n,baseline,numbers,2017_Jun_18_1109,none,0,ilya_ring_1task_long,120.03884282899999,l,keyboard,129.443911115,,,,,2.0,11,middle,0.0,216.051894424,0.0,none,24.0,1.9660992852099999,0.0,0.0,0.0,,0.0,7.0,23.0,2.0,7.0,,,,
33,,,n,compatible,numbers,2017_Jun_18_1109,index,i,ilya_ring_1task_long,120.03884282899999,l,keyboard,1002.76467888,,,,,1.0,11,index,0.0,2482.8366859000002,0.0,none,25.0,2.8578765303900004,0.0,0.0,0.0,,0.0,0.0,24.0,3.0,0.0,,,,
34,,,n,incompatible,numbers,2017_Jun_18_1109,index,i,ilya_ring_1task_long,120.03884282899999,l,keyboard,49.0300640932,,,,,2.0,11,middle,0.0,0.0,0.0,none,26.0,1.9078288377500001,0.0,0.0,0.0,,0.0,4.0,25.0,3.0,1.0,,,,
35,,,n,baseline,numbers,2017_Jun_18_1109,none,0,ilya_ring_1task_long,120.03884282899999,l,keyboard,468.479780055,,,,,1.0,11,index,0.0,674.434932747,0.0,none,27.0,2.32449922726,0.0,0.0,0.0,,0.0,3.0,26.0,3.0,2.0,,,,
36,,,n,irrelevant,numbers,2017_Jun_18_1109,ring,b,ilya_ring_1task_long,120.03884282899999,l,keyboard,693.4690498860001,,,,,1.0,11,index,0.0,2349.50375504,0.0,none,28.0,2.53288498225,0.0,0.0,0.0,,0.0,2.0,27.0,3.0,3.0,,,,
37,,,n,compatible,numbers,2017_Jun_18_1109,middle,m,ilya_ring_1task_long,120.03884282899999,l,keyboard,272.097237808,,,,,2.0,11,middle,0.0,0.0,0.0,none,29.0,2.1158514645900004,0.0,0.0,0.0,,0.0,5.0,28.0,3.0,4.0,,,,
