,Unnamed: 29,Unnamed: 31,correct,cueColor,cueNumber,date,distCode,distrType,expName,expType,frameRate,gender,keyBreak.keys,keyBreak.rt,key_resp_2.keys,key_resp_2.rt,key_resp_3.keys,key_resp_3.rt,mousePressedStart,participant,practice,prevTrialBreak,respExpected,response,rt,trials.thisIndex,trials.thisN,trials.thisRepN,trials.thisTrialN,trialsPractice.thisIndex,trialsPractice.thisN,trialsPractice.thisRepN,trialsPractice.thisTrialN
0,,,,,,2016_Mar_29_1307,,,ilya5c-p,,120.023621569,m,,,,,space,11.6560488155,,10,,,,,,,,,,,,,
1,,,1.0,g,1.0,2016_Mar_29_1307,b,ring,ilya5c-p,middle_ring,120.023621569,m,,,,,,,"[1, 0, 1]",10,1.0,0.0,"[2, 3]",1.0,0.6372727656830001,,,,,3.0,0.0,0.0,0.0
2,,,1.0,g,1.0,2016_Mar_29_1307,0,baseline,ilya5c-p,middle_ring,120.023621569,m,,,,,,,"[1, 0, 1]",10,1.0,0.0,"[2, 3]",1.0,0.514485945777,,,,,0.0,1.0,0.0,1.0
3,,,1.0,p,2.0,2016_Mar_29_1307,m,middle,ilya5c-p,middle_ring,120.023621569,m,,,,,,,"[1, 0, 1]",10,1.0,0.0,"[2, 3]",2.0,0.414678225582,,,,,6.0,2.0,0.0,2.0
4,,,1.0,p,2.0,2016_Mar_29_1307,i,index,ilya5c-p,middle_ring,120.023621569,m,,,,,,,"[1, 0, 1]",10,1.0,0.0,"[2, 3]",2.0,0.314657397799,,,,,5.0,3.0,0.0,3.0
5,,,1.0,g,1.0,2016_Mar_29_1307,m,middle,ilya5c-p,middle_ring,120.023621569,m,,,,,,,"[1, 0, 1]",10,1.0,0.0,"[2, 3]",1.0,0.38966132188,,,,,2.0,4.0,0.0,4.0
6,,,1.0,p,2.0,2016_Mar_29_1307,0,baseline,ilya5c-p,middle_ring,120.023621569,m,,,,,,,"[1, 0, 1]",10,1.0,0.0,"[2, 3]",2.0,0.489683960766,,,,,4.0,5.0,0.0,5.0
7,,,1.0,g,1.0,2016_Mar_29_1307,i,index,ilya5c-p,middle_ring,120.023621569,m,,,,,,,"[1, 0, 1]",10,1.0,0.0,"[2, 3]",1.0,0.364657095951,,,,,1.0,6.0,0.0,6.0
8,,,1.0,p,2.0,2016_Mar_29_1307,b,ring,ilya5c-p,middle_ring,120.023621569,m,,,,,,,"[1, 0, 1]",10,1.0,0.0,"[2, 3]",2.0,0.464618760712,,,,,7.0,7.0,0.0,7.0
9,,,,,,2016_Mar_29_1307,,,ilya5c-p,,120.023621569,m,,,space,4.43367613677,,,,10,,,,,,,,,,,,,
10,,,0.0,g,1.0,2016_Mar_29_1307,0,baseline,ilya5c-p,middle_ring,120.023621569,m,space,1.40849623288,,,,,"[1, 0, 1]",10,0.0,1.0,"[2, 3]",2.0,0.287732486553,0.0,0.0,0.0,0.0,,,,
11,,,1.0,g,1.0,2016_Mar_29_1307,b,ring,ilya5c-p,middle_ring,120.023621569,m,None,,,,,,"[1, 0, 1]",10,0.0,0.0,"[2, 3]",1.0,0.464658001523,3.0,1.0,0.0,1.0,,,,
12,,,1.0,p,2.0,2016_Mar_29_1307,0,baseline,ilya5c-p,middle_ring,120.023621569,m,None,,,,,,"[1, 0, 1]",10,0.0,1.0,"[2, 3]",2.0,0.689430404947,4.0,2.0,0.0,2.0,,,,
13,,,1.0,g,1.0,2016_Mar_29_1307,i,index,ilya5c-p,middle_ring,120.023621569,m,None,,,,,,"[1, 0, 1]",10,0.0,1.0,"[2, 3]",1.0,0.389431914225,1.0,3.0,0.0,3.0,,,,
14,,,1.0,g,1.0,2016_Mar_29_1307,i,index,ilya5c-p,middle_ring,120.023621569,m,None,,,,,,"[1, 0, 1]",10,0.0,1.0,"[2, 3]",1.0,0.63944640313,1.0,4.0,0.0,4.0,,,,
15,,,1.0,p,2.0,2016_Mar_29_1307,b,ring,ilya5c-p,middle_ring,120.023621569,m,None,,,,,,"[1, 0, 1]",10,0.0,1.0,"[2, 3]",2.0,0.41444217719000004,7.0,5.0,0.0,5.0,,,,
16,,,1.0,g,1.0,2016_Mar_29_1307,m,middle,ilya5c-p,middle_ring,120.023621569,m,None,,,,,,"[1, 0, 1]",10,0.0,1.0,"[2, 3]",1.0,0.414333510414,2.0,6.0,0.0,6.0,,,,
17,,,1.0,g,1.0,2016_Mar_29_1307,0,baseline,ilya5c-p,middle_ring,120.023621569,m,None,,,,,,"[1, 0, 1]",10,0.0,1.0,"[2, 3]",1.0,0.46443161240099995,0.0,7.0,0.0,7.0,,,,
18,,,1.0,p,2.0,2016_Mar_29_1307,m,middle,ilya5c-p,middle_ring,120.023621569,m,None,,,,,,"[1, 0, 1]",10,0.0,1.0,"[2, 3]",2.0,0.489381203047,6.0,8.0,1.0,0.0,,,,
19,,,1.0,p,2.0,2016_Mar_29_1307,b,ring,ilya5c-p,middle_ring,120.023621569,m,None,,,,,,"[1, 0, 1]",10,0.0,1.0,"[2, 3]",2.0,0.43943161237800005,7.0,9.0,1.0,1.0,,,,
20,,,1.0,p,2.0,2016_Mar_29_1307,m,middle,ilya5c-p,middle_ring,120.023621569,m,None,,,,,,"[1, 0, 1]",10,0.0,1.0,"[2, 3]",2.0,0.839416217901,6.0,10.0,1.0,2.0,,,,
21,,,1.0,p,2.0,2016_Mar_29_1307,i,index,ilya5c-p,middle_ring,120.023621569,m,None,,,,,,"[1, 0, 1]",10,0.0,1.0,"[2, 3]",2.0,0.589402332725,5.0,11.0,1.0,3.0,,,,
22,,,0.0,p,2.0,2016_Mar_29_1307,i,index,ilya5c-p,middle_ring,120.023621569,m,None,,,,,,"[1, 0, 1]",10,0.0,1.0,"[2, 3]",1.0,0.414411690142,5.0,12.0,1.0,4.0,,,,
23,,,1.0,g,1.0,2016_Mar_29_1307,0,baseline,ilya5c-p,middle_ring,120.023621569,m,None,,,,,,"[1, 0, 1]",10,0.0,1.0,"[2, 3]",1.0,0.439424971611,0.0,13.0,1.0,5.0,,,,
24,,,1.0,p,2.0,2016_Mar_29_1307,b,ring,ilya5c-p,middle_ring,120.023621569,m,None,,,,,,"[1, 0, 1]",10,0.0,1.0,"[2, 3]",2.0,0.489370940076,7.0,14.0,1.0,6.0,,,,
25,,,0.0,p,2.0,2016_Mar_29_1307,i,index,ilya5c-p,middle_ring,120.023621569,m,None,,,,,,"[1, 0, 1]",10,0.0,1.0,"[2, 3]",1.0,0.38944006422899996,5.0,15.0,1.0,7.0,,,,
26,,,0.0,g,1.0,2016_Mar_29_1307,i,index,ilya5c-p,middle_ring,120.023621569,m,None,,,,,,"[1, 0, 1]",10,0.0,1.0,"[2, 3]",2.0,0.41444127165399997,1.0,16.0,2.0,0.0,,,,
27,,,1.0,g,1.0,2016_Mar_29_1307,i,index,ilya5c-p,middle_ring,120.023621569,m,None,,,,,,"[1, 0, 1]",10,0.0,1.0,"[2, 3]",1.0,0.489399917887,1.0,17.0,2.0,1.0,,,,
28,,,1.0,p,2.0,2016_Mar_29_1307,0,baseline,ilya5c-p,middle_ring,120.023621569,m,None,,,,,,"[1, 0, 1]",10,0.0,1.0,"[2, 3]",2.0,0.439402936432,4.0,18.0,2.0,2.0,,,,
29,,,1.0,g,1.0,2016_Mar_29_1307,b,ring,ilya5c-p,middle_ring,120.023621569,m,None,,,,,,"[1, 0, 1]",10,0.0,1.0,"[2, 3]",1.0,0.489433121632,3.0,19.0,2.0,3.0,,,,
30,,,1.0,g,1.0,2016_Mar_29_1307,m,middle,ilya5c-p,middle_ring,120.023621569,m,None,,,,,,"[1, 0, 1]",10,0.0,1.0,"[2, 3]",1.0,0.489498019856,2.0,20.0,2.0,4.0,,,,
31,,,0.0,p,2.0,2016_Mar_29_1307,m,middle,ilya5c-p,middle_ring,120.023621569,m,None,,,,,,"[1, 0, 1]",10,0.0,1.0,"[2, 3]",1.0,0.314393880862,6.0,21.0,2.0,5.0,,,,
32,,,1.0,p,2.0,2016_Mar_29_1307,m,middle,ilya5c-p,middle_ring,120.023621569,m,None,,,,,,"[1, 0, 1]",10,0.0,1.0,"[2, 3]",2.0,0.389467834638,6.0,22.0,2.0,6.0,,,,
33,,,1.0,p,2.0,2016_Mar_29_1307,b,ring,ilya5c-p,middle_ring,120.023621569,m,None,,,,,,"[1, 0, 1]",10,0.0,1.0,"[2, 3]",2.0,0.539449421657,7.0,23.0,2.0,7.0,,,,
34,,,1.0,g,1.0,2016_Mar_29_1307,m,middle,ilya5c-p,middle_ring,120.023621569,m,None,,,,,,"[1, 0, 1]",10,0.0,1.0,"[2, 3]",1.0,0.364421953096,2.0,24.0,3.0,0.0,,,,
35,,,1.0,g,1.0,2016_Mar_29_1307,m,middle,ilya5c-p,middle_ring,120.023621569,m,None,,,,,,"[1, 0, 1]",10,0.0,1.0,"[2, 3]",1.0,0.414408973474,2.0,25.0,3.0,1.0,,,,
36,,,1.0,p,2.0,2016_Mar_29_1307,i,index,ilya5c-p,middle_ring,120.023621569,m,None,,,,,,"[1, 0, 1]",10,0.0,1.0,"[2, 3]",2.0,0.414427386449,5.0,26.0,3.0,2.0,,,,
37,,,1.0,p,2.0,2016_Mar_29_1307,0,baseline,ilya5c-p,middle_ring,120.023621569,m,None,,,,,,"[1, 0, 1]",10,0.0,1.0,"[2, 3]",2.0,0.439446704984,4.0,27.0,3.0,3.0,,,,
38,,,1.0,p,2.0,2016_Mar_29_1307,m,middle,ilya5c-p,middle_ring,120.023621569,m,None,,,,,,"[1, 0, 1]",10,0.0,1.0,"[2, 3]",2.0,0.439392975296,6.0,28.0,3.0,4.0,,,,
39,,,1.0,p,2.0,2016_Mar_29_1307,m,middle,ilya5c-p,middle_ring,120.023621569,m,None,,,,,,"[1, 0, 1]",10,0.0,1.0,"[2, 3]",2.0,0.589399616057,6.0,29.0,3.0,5.0,,,,
40,,,1.0,g,1.0,2016_Mar_29_1307,0,baseline,ilya5c-p,middle_ring,120.023621569,m,None,,,,,,"[1, 0, 1]",10,0.0,1.0,"[2, 3]",1.0,0.489438554968,0.0,30.0,3.0,6.0,,,,
41,,,1.0,g,1.0,2016_Mar_29_1307,b,ring,ilya5c-p,middle_ring,120.023621569,m,None,,,,,,"[1, 0, 1]",10,0.0,1.0,"[2, 3]",1.0,0.739408671621,3.0,31.0,3.0,7.0,,,,
42,,,1.0,g,1.0,2016_Mar_29_1307,m,middle,ilya5c-p,middle_ring,120.023621569,m,None,,,,,,"[1, 0, 1]",10,0.0,1.0,"[2, 3]",1.0,0.464436140142,2.0,32.0,4.0,0.0,,,,
43,,,1.0,g,1.0,2016_Mar_29_1307,b,ring,ilya5c-p,middle_ring,120.023621569,m,None,,,,,,"[1, 0, 1]",10,0.0,1.0,"[2, 3]",1.0,0.539435838318,3.0,33.0,4.0,1.0,,,,
44,,,1.0,g,1.0,2016_Mar_29_1307,b,ring,ilya5c-p,middle_ring,120.023621569,m,None,,,,,,"[1, 0, 1]",10,0.0,1.0,"[2, 3]",1.0,0.46450828280400003,3.0,34.0,4.0,2.0,,,,
45,,,1.0,g,1.0,2016_Mar_29_1307,i,index,ilya5c-p,middle_ring,120.023621569,m,None,,,,,,"[1, 0, 1]",10,0.0,1.0,"[2, 3]",1.0,0.439425575341,1.0,35.0,4.0,3.0,,,,
46,,,1.0,g,1.0,2016_Mar_29_1307,b,ring,ilya5c-p,middle_ring,120.023621569,m,None,,,,,,"[1, 0, 1]",10,0.0,1.0,"[2, 3]",1.0,0.464402634561,3.0,36.0,4.0,4.0,,,,
47,,,1.0,p,2.0,2016_Mar_29_1307,i,index,ilya5c-p,middle_ring,120.023621569,m,None,,,,,,"[1, 0, 1]",10,0.0,1.0,"[2, 3]",2.0,0.414454251293,5.0,37.0,4.0,5.0,,,,
48,,,1.0,g,1.0,2016_Mar_29_1307,i,index,ilya5c-p,middle_ring,120.023621569,m,None,,,,,,"[1, 0, 1]",10,0.0,1.0,"[2, 3]",1.0,0.46438331602,1.0,38.0,4.0,6.0,,,,
49,,,1.0,p,2.0,2016_Mar_29_1307,0,baseline,ilya5c-p,middle_ring,120.023621569,m,None,,,,,,"[1, 0, 1]",10,0.0,1.0,"[2, 3]",2.0,0.7642674048229999,4.0,39.0,4.0,7.0,,,,
50,,,1.0,g,1.0,2016_Mar_29_1307,i,index,ilya5c-p,middle_ring,120.023621569,m,None,,,,,,"[1, 0, 1]",10,0.0,1.0,"[2, 3]",1.0,0.664467834632,1.0,40.0,5.0,0.0,,,,
51,,,1.0,p,2.0,2016_Mar_29_1307,b,ring,ilya5c-p,middle_ring,120.023621569,m,None,,,,,,"[1, 0, 1]",10,0.0,0.0,"[2, 3]",2.0,0.46444489387599996,7.0,41.0,5.0,1.0,,,,
52,,,1.0,g,1.0,2016_Mar_29_1307,i,index,ilya5c-p,middle_ring,120.023621569,m,None,,,,,,"[1, 0, 1]",10,0.0,1.0,"[2, 3]",1.0,0.464414104933,1.0,42.0,5.0,2.0,,,,
53,,,1.0,p,2.0,2016_Mar_29_1307,m,middle,ilya5c-p,middle_ring,120.023621569,m,None,,,,,,"[1, 0, 1]",10,0.0,1.0,"[2, 3]",2.0,0.764420745688,6.0,43.0,5.0,3.0,,,,
54,,,1.0,g,1.0,2016_Mar_29_1307,b,ring,ilya5c-p,middle_ring,120.023621569,m,None,,,,,,"[1, 0, 1]",10,0.0,1.0,"[2, 3]",1.0,0.5143875419430001,3.0,44.0,5.0,4.0,,,,
55,,,1.0,p,2.0,2016_Mar_29_1307,m,middle,ilya5c-p,middle_ring,120.023621569,m,None,,,,,,"[1, 0, 1]",10,0.0,1.0,"[2, 3]",2.0,0.464431310536,6.0,45.0,5.0,5.0,,,,
56,,,1.0,g,1.0,2016_Mar_29_1307,m,middle,ilya5c-p,middle_ring,120.023621569,m,None,,,,,,"[1, 0, 1]",10,0.0,1.0,"[2, 3]",1.0,0.364427386461,2.0,46.0,5.0,6.0,,,,
57,,,1.0,g,1.0,2016_Mar_29_1307,m,middle,ilya5c-p,middle_ring,120.023621569,m,None,,,,,,"[1, 0, 1]",10,0.0,1.0,"[2, 3]",1.0,0.414399314175,2.0,47.0,5.0,7.0,,,,
58,,,1.0,g,1.0,2016_Mar_29_1307,m,middle,ilya5c-p,middle_ring,120.023621569,m,None,,,,,,"[1, 0, 1]",10,0.0,1.0,"[2, 3]",1.0,0.339443686445,2.0,48.0,6.0,0.0,,,,
59,,,1.0,g,1.0,2016_Mar_29_1307,m,middle,ilya5c-p,middle_ring,120.023621569,m,None,,,,,,"[1, 0, 1]",10,0.0,1.0,"[2, 3]",1.0,0.414449119793,2.0,49.0,6.0,1.0,,,,
60,,,1.0,g,1.0,2016_Mar_29_1307,0,baseline,ilya5c-p,middle_ring,120.023621569,m,None,,,,,,"[1, 0, 1]",10,0.0,1.0,"[2, 3]",1.0,0.41434316968400003,0.0,50.0,6.0,2.0,,,,
61,,,1.0,g,1.0,2016_Mar_29_1307,b,ring,ilya5c-p,middle_ring,120.023621569,m,None,,,,,,"[1, 0, 1]",10,0.0,1.0,"[2, 3]",1.0,0.364351923401,3.0,51.0,6.0,3.0,,,,
62,,,1.0,g,1.0,2016_Mar_29_1307,i,index,ilya5c-p,middle_ring,120.023621569,m,None,,,,,,"[1, 0, 1]",10,0.0,1.0,"[2, 3]",1.0,0.389472664273,1.0,52.0,6.0,4.0,,,,
63,,,0.0,p,2.0,2016_Mar_29_1307,m,middle,ilya5c-p,middle_ring,120.023621569,m,None,,,,,,"[1, 0, 1]",10,0.0,1.0,"[2, 3]",1.0,0.38945606240099995,6.0,53.0,6.0,5.0,,,,
64,,,1.0,p,2.0,2016_Mar_29_1307,b,ring,ilya5c-p,middle_ring,120.023621569,m,None,,,,,,"[1, 0, 1]",10,0.0,1.0,"[2, 3]",2.0,0.51440384198,7.0,54.0,6.0,6.0,,,,
65,,,1.0,p,2.0,2016_Mar_29_1307,i,index,ilya5c-p,middle_ring,120.023621569,m,None,,,,,,"[1, 0, 1]",10,0.0,1.0,"[2, 3]",2.0,0.48945394943899995,5.0,55.0,6.0,7.0,,,,
66,,,1.0,p,2.0,2016_Mar_29_1307,b,ring,ilya5c-p,middle_ring,120.023621569,m,None,,,,,,"[1, 0, 1]",10,0.0,1.0,"[2, 3]",2.0,0.46446843835100005,7.0,56.0,7.0,0.0,,,,
67,,,1.0,g,1.0,2016_Mar_29_1307,0,baseline,ilya5c-p,middle_ring,120.023621569,m,None,,,,,,"[1, 0, 1]",10,0.0,1.0,"[2, 3]",1.0,0.5109201661230001,0.0,57.0,7.0,1.0,,,,
68,,,1.0,g,1.0,2016_Mar_29_1307,b,ring,ilya5c-p,middle_ring,120.023621569,m,None,,,,,,"[1, 0, 1]",10,0.0,1.0,"[2, 3]",1.0,0.564442780914,3.0,58.0,7.0,2.0,,,,
69,,,1.0,p,2.0,2016_Mar_29_1307,b,ring,ilya5c-p,middle_ring,120.023621569,m,None,,,,,,"[1, 0, 1]",10,0.0,1.0,"[2, 3]",2.0,0.489476890184,7.0,59.0,7.0,3.0,,,,
70,,,1.0,p,2.0,2016_Mar_29_1307,0,baseline,ilya5c-p,middle_ring,120.023621569,m,None,,,,,,"[1, 0, 1]",10,0.0,1.0,"[2, 3]",2.0,0.539395993806,4.0,60.0,7.0,4.0,,,,
71,,,1.0,p,2.0,2016_Mar_29_1307,i,index,ilya5c-p,middle_ring,120.023621569,m,None,,,,,,"[1, 0, 1]",10,0.0,1.0,"[2, 3]",2.0,0.489384523445,5.0,61.0,7.0,5.0,,,,
72,,,1.0,p,2.0,2016_Mar_29_1307,b,ring,ilya5c-p,middle_ring,120.023621569,m,None,,,,,,"[1, 0, 1]",10,0.0,1.0,"[2, 3]",2.0,0.464421349401,7.0,62.0,7.0,6.0,,,,
73,,,1.0,p,2.0,2016_Mar_29_1307,0,baseline,ilya5c-p,middle_ring,120.023621569,m,None,,,,,,"[1, 0, 1]",10,0.0,1.0,"[2, 3]",2.0,0.4644156142,4.0,63.0,7.0,7.0,,,,
74,,,1.0,g,1.0,2016_Mar_29_1307,i,index,ilya5c-p,middle_ring,120.023621569,m,None,,,,,,"[1, 0, 1]",10,0.0,1.0,"[2, 3]",1.0,0.514321436317,1.0,64.0,8.0,0.0,,,,
75,,,1.0,p,2.0,2016_Mar_29_1307,0,baseline,ilya5c-p,middle_ring,120.023621569,m,None,,,,,,"[1, 0, 1]",10,0.0,1.0,"[2, 3]",2.0,0.464407766061,4.0,65.0,8.0,1.0,,,,
76,,,1.0,p,2.0,2016_Mar_29_1307,m,middle,ilya5c-p,middle_ring,120.023621569,m,None,,,,,,"[1, 0, 1]",10,0.0,1.0,"[2, 3]",2.0,0.489422556796,6.0,66.0,8.0,2.0,,,,
77,,,1.0,p,2.0,2016_Mar_29_1307,b,ring,ilya5c-p,middle_ring,120.023621569,m,None,,,,,,"[1, 0, 1]",10,0.0,1.0,"[2, 3]",2.0,0.38943825312700003,7.0,67.0,8.0,3.0,,,,
78,,,1.0,p,2.0,2016_Mar_29_1307,b,ring,ilya5c-p,middle_ring,120.023621569,m,None,,,,,,"[1, 0, 1]",10,0.0,1.0,"[2, 3]",2.0,0.38942949939300003,7.0,68.0,8.0,4.0,,,,
79,,,1.0,p,2.0,2016_Mar_29_1307,b,ring,ilya5c-p,middle_ring,120.023621569,m,None,,,,,,"[1, 0, 1]",10,0.0,1.0,"[2, 3]",2.0,0.489449421669,7.0,69.0,8.0,5.0,,,,
80,,,1.0,g,1.0,2016_Mar_29_1307,b,ring,ilya5c-p,middle_ring,120.023621569,m,None,,,,,,"[1, 0, 1]",10,0.0,1.0,"[2, 3]",1.0,0.364401125289,3.0,70.0,8.0,6.0,,,,
81,,,1.0,g,1.0,2016_Mar_29_1307,0,baseline,ilya5c-p,middle_ring,120.023621569,m,None,,,,,,"[1, 0, 1]",10,0.0,1.0,"[2, 3]",1.0,0.8394219531010001,0.0,71.0,8.0,7.0,,,,
82,,,0.0,p,2.0,2016_Mar_29_1307,0,baseline,ilya5c-p,middle_ring,120.023621569,m,None,,,,,,"[1, 0, 1]",10,0.0,1.0,"[2, 3]",1.0,0.414379090097,4.0,72.0,9.0,0.0,,,,
83,,,1.0,g,1.0,2016_Mar_29_1307,0,baseline,ilya5c-p,middle_ring,120.023621569,m,None,,,,,,"[1, 0, 1]",10,0.0,1.0,"[2, 3]",1.0,0.6894128975380001,0.0,73.0,9.0,1.0,,,,
84,,,1.0,p,2.0,2016_Mar_29_1307,m,middle,ilya5c-p,middle_ring,120.023621569,m,None,,,,,,"[1, 0, 1]",10,0.0,1.0,"[2, 3]",2.0,0.46442044383500003,6.0,74.0,9.0,2.0,,,,
85,,,1.0,g,1.0,2016_Mar_29_1307,m,middle,ilya5c-p,middle_ring,120.023621569,m,None,,,,,,"[1, 0, 1]",10,0.0,1.0,"[2, 3]",1.0,0.9394482142209999,2.0,75.0,9.0,3.0,,,,
86,,,1.0,g,1.0,2016_Mar_29_1307,b,ring,ilya5c-p,middle_ring,120.023621569,m,None,,,,,,"[1, 0, 1]",10,0.0,1.0,"[2, 3]",1.0,0.9144608920589999,3.0,76.0,9.0,4.0,,,,
87,,,1.0,g,1.0,2016_Mar_29_1307,i,index,ilya5c-p,middle_ring,120.023621569,m,None,,,,,,"[1, 0, 1]",10,0.0,1.0,"[2, 3]",1.0,0.539385730835,1.0,77.0,9.0,5.0,,,,
88,,,1.0,p,2.0,2016_Mar_29_1307,m,middle,ilya5c-p,middle_ring,120.023621569,m,None,,,,,,"[1, 0, 1]",10,0.0,1.0,"[2, 3]",2.0,0.689392371567,6.0,78.0,9.0,6.0,,,,
89,,,1.0,p,2.0,2016_Mar_29_1307,m,middle,ilya5c-p,middle_ring,120.023621569,m,None,,,,,,"[1, 0, 1]",10,0.0,1.0,"[2, 3]",2.0,0.5894104827000001,6.0,79.0,9.0,7.0,,,,
90,,,1.0,p,2.0,2016_Mar_29_1307,i,index,ilya5c-p,middle_ring,120.023621569,m,None,,,,,,"[1, 0, 1]",10,0.0,1.0,"[2, 3]",2.0,0.639388145644,5.0,80.0,10.0,0.0,,,,
91,,,1.0,g,1.0,2016_Mar_29_1307,b,ring,ilya5c-p,middle_ring,120.023621569,m,None,,,,,,"[1, 0, 1]",10,0.0,0.0,"[2, 3]",1.0,0.489407162354,3.0,81.0,10.0,1.0,,,,
92,,,1.0,g,1.0,2016_Mar_29_1307,m,middle,ilya5c-p,middle_ring,120.023621569,m,None,,,,,,"[1, 0, 1]",10,0.0,1.0,"[2, 3]",1.0,0.6144279901609999,2.0,82.0,10.0,2.0,,,,
93,,,1.0,p,2.0,2016_Mar_29_1307,0,baseline,ilya5c-p,middle_ring,120.023621569,m,None,,,,,,"[1, 0, 1]",10,0.0,1.0,"[2, 3]",2.0,0.614441875337,4.0,83.0,10.0,3.0,,,,
94,,,1.0,p,2.0,2016_Mar_29_1307,0,baseline,ilya5c-p,middle_ring,120.023621569,m,None,,,,,,"[1, 0, 1]",10,0.0,1.0,"[2, 3]",2.0,0.539413199379,4.0,84.0,10.0,4.0,,,,
95,,,1.0,p,2.0,2016_Mar_29_1307,0,baseline,ilya5c-p,middle_ring,120.023621569,m,None,,,,,,"[1, 0, 1]",10,0.0,1.0,"[2, 3]",2.0,0.564413501238,4.0,85.0,10.0,5.0,,,,
96,,,1.0,p,2.0,2016_Mar_29_1307,i,index,ilya5c-p,middle_ring,120.023621569,m,None,,,,,,"[1, 0, 1]",10,0.0,1.0,"[2, 3]",2.0,0.539422556814,5.0,86.0,10.0,6.0,,,,
97,,,1.0,p,2.0,2016_Mar_29_1307,m,middle,ilya5c-p,middle_ring,120.023621569,m,None,,,,,,"[1, 0, 1]",10,0.0,1.0,"[2, 3]",2.0,0.514392069742,6.0,87.0,10.0,7.0,,,,
98,,,1.0,g,1.0,2016_Mar_29_1307,i,index,ilya5c-p,middle_ring,120.023621569,m,None,,,,,,"[1, 0, 1]",10,0.0,1.0,"[2, 3]",1.0,0.6144491197749999,1.0,88.0,11.0,0.0,,,,
99,,,1.0,g,1.0,2016_Mar_29_1307,0,baseline,ilya5c-p,middle_ring,120.023621569,m,None,,,,,,"[1, 0, 1]",10,0.0,1.0,"[2, 3]",1.0,0.589451836478,0.0,89.0,11.0,1.0,,,,
100,,,1.0,g,1.0,2016_Mar_29_1307,i,index,ilya5c-p,middle_ring,120.023621569,m,None,,,,,,"[1, 0, 1]",10,0.0,1.0,"[2, 3]",1.0,0.539468136468,1.0,90.0,11.0,2.0,,,,
101,,,1.0,g,1.0,2016_Mar_29_1307,0,baseline,ilya5c-p,middle_ring,120.023621569,m,None,,,,,,"[1, 0, 1]",10,0.0,1.0,"[2, 3]",1.0,0.47234677983,0.0,91.0,11.0,3.0,,,,
102,,,1.0,p,2.0,2016_Mar_29_1307,0,baseline,ilya5c-p,middle_ring,120.023621569,m,None,,,,,,"[1, 0, 1]",10,0.0,1.0,"[2, 3]",2.0,0.464426179036,4.0,92.0,11.0,4.0,,,,
103,,,1.0,g,1.0,2016_Mar_29_1307,0,baseline,ilya5c-p,middle_ring,120.023621569,m,None,,,,,,"[1, 0, 1]",10,0.0,1.0,"[2, 3]",1.0,0.614450629071,0.0,93.0,11.0,5.0,,,,
104,,,1.0,p,2.0,2016_Mar_29_1307,0,baseline,ilya5c-p,middle_ring,120.023621569,m,None,,,,,,"[1, 0, 1]",10,0.0,1.0,"[2, 3]",2.0,0.564399012333,4.0,94.0,11.0,6.0,,,,
105,,,1.0,p,2.0,2016_Mar_29_1307,b,ring,ilya5c-p,middle_ring,120.023621569,m,None,,,,,,"[1, 0, 1]",10,0.0,1.0,"[2, 3]",2.0,0.48944851607400003,7.0,95.0,11.0,7.0,,,,
106,,,1.0,g,1.0,2016_Mar_29_1307,i,index,ilya5c-p,middle_ring,120.023621569,m,None,,,,,,"[1, 0, 1]",10,0.0,1.0,"[2, 3]",1.0,0.5144279901259999,1.0,96.0,12.0,0.0,,,,
107,,,1.0,g,1.0,2016_Mar_29_1307,0,baseline,ilya5c-p,middle_ring,120.023621569,m,None,,,,,,"[1, 0, 1]",10,0.0,1.0,"[2, 3]",1.0,0.464405653094,0.0,97.0,12.0,1.0,,,,
108,,,1.0,p,2.0,2016_Mar_29_1307,i,index,ilya5c-p,middle_ring,120.023621569,m,None,,,,,,"[1, 0, 1]",10,0.0,1.0,"[2, 3]",2.0,0.664449119793,5.0,98.0,12.0,2.0,,,,
109,,,1.0,g,1.0,2016_Mar_29_1307,m,middle,ilya5c-p,middle_ring,120.023621569,m,None,,,,,,"[1, 0, 1]",10,0.0,1.0,"[2, 3]",1.0,0.38945757166699996,2.0,99.0,12.0,3.0,,,,
110,,,1.0,p,2.0,2016_Mar_29_1307,m,middle,ilya5c-p,middle_ring,120.023621569,m,None,,,,,,"[1, 0, 1]",10,0.0,1.0,"[2, 3]",2.0,0.739501642061,6.0,100.0,12.0,4.0,,,,
111,,,1.0,p,2.0,2016_Mar_29_1307,i,index,ilya5c-p,middle_ring,120.023621569,m,None,,,,,,"[1, 0, 1]",10,0.0,1.0,"[2, 3]",2.0,0.614462099443,5.0,101.0,12.0,5.0,,,,
112,,,1.0,g,1.0,2016_Mar_29_1307,m,middle,ilya5c-p,middle_ring,120.023621569,m,None,,,,,,"[1, 0, 1]",10,0.0,1.0,"[2, 3]",1.0,0.814451232754,2.0,102.0,12.0,6.0,,,,
113,,,1.0,p,2.0,2016_Mar_29_1307,0,baseline,ilya5c-p,middle_ring,120.023621569,m,None,,,,,,"[1, 0, 1]",10,0.0,1.0,"[2, 3]",2.0,0.48954752358000003,4.0,103.0,12.0,7.0,,,,
114,,,1.0,g,1.0,2016_Mar_29_1307,0,baseline,ilya5c-p,middle_ring,120.023621569,m,None,,,,,,"[1, 0, 1]",10,0.0,1.0,"[2, 3]",1.0,0.589433725339,0.0,104.0,13.0,0.0,,,,
115,,,1.0,p,2.0,2016_Mar_29_1307,0,baseline,ilya5c-p,middle_ring,120.023621569,m,None,,,,,,"[1, 0, 1]",10,0.0,1.0,"[2, 3]",2.0,0.564464816094,4.0,105.0,13.0,1.0,,,,
116,,,1.0,g,1.0,2016_Mar_29_1307,m,middle,ilya5c-p,middle_ring,120.023621569,m,None,,,,,,"[1, 0, 1]",10,0.0,1.0,"[2, 3]",1.0,0.639413199414,2.0,106.0,13.0,2.0,,,,
117,,,1.0,g,1.0,2016_Mar_29_1307,b,ring,ilya5c-p,middle_ring,120.023621569,m,None,,,,,,"[1, 0, 1]",10,0.0,1.0,"[2, 3]",1.0,0.664444893887,3.0,107.0,13.0,3.0,,,,
118,,,1.0,p,2.0,2016_Mar_29_1307,b,ring,ilya5c-p,middle_ring,120.023621569,m,None,,,,,,"[1, 0, 1]",10,0.0,1.0,"[2, 3]",2.0,0.489420141993,7.0,108.0,13.0,4.0,,,,
119,,,1.0,g,1.0,2016_Mar_29_1307,0,baseline,ilya5c-p,middle_ring,120.023621569,m,None,,,,,,"[1, 0, 1]",10,0.0,1.0,"[2, 3]",1.0,0.539344377086,0.0,109.0,13.0,5.0,,,,
120,,,1.0,p,2.0,2016_Mar_29_1307,i,index,ilya5c-p,middle_ring,120.023621569,m,None,,,,,,"[1, 0, 1]",10,0.0,1.0,"[2, 3]",2.0,0.5643247567040001,5.0,110.0,13.0,6.0,,,,
121,,,1.0,g,1.0,2016_Mar_29_1307,b,ring,ilya5c-p,middle_ring,120.023621569,m,None,,,,,,"[1, 0, 1]",10,0.0,1.0,"[2, 3]",1.0,0.539431612354,3.0,111.0,13.0,7.0,,,,
122,,,1.0,g,1.0,2016_Mar_29_1307,i,index,ilya5c-p,middle_ring,120.023621569,m,None,,,,,,"[1, 0, 1]",10,0.0,1.0,"[2, 3]",1.0,0.514452742032,1.0,112.0,14.0,0.0,,,,
123,,,1.0,p,2.0,2016_Mar_29_1307,i,index,ilya5c-p,middle_ring,120.023621569,m,None,,,,,,"[1, 0, 1]",10,0.0,1.0,"[2, 3]",2.0,0.39746752069700003,5.0,113.0,14.0,1.0,,,,
124,,,1.0,g,1.0,2016_Mar_29_1307,0,baseline,ilya5c-p,middle_ring,120.023621569,m,None,,,,,,"[1, 0, 1]",10,0.0,1.0,"[2, 3]",1.0,0.514457571667,0.0,114.0,14.0,2.0,,,,
125,,,1.0,g,1.0,2016_Mar_29_1307,m,middle,ilya5c-p,middle_ring,120.023621569,m,None,,,,,,"[1, 0, 1]",10,0.0,1.0,"[2, 3]",1.0,0.514424367922,2.0,115.0,14.0,3.0,,,,
126,,,1.0,g,1.0,2016_Mar_29_1307,b,ring,ilya5c-p,middle_ring,120.023621569,m,None,,,,,,"[1, 0, 1]",10,0.0,1.0,"[2, 3]",1.0,0.664435838318,3.0,116.0,14.0,4.0,,,,
127,,,1.0,p,2.0,2016_Mar_29_1307,i,index,ilya5c-p,middle_ring,120.023621569,m,None,,,,,,"[1, 0, 1]",10,0.0,1.0,"[2, 3]",2.0,0.589387541955,5.0,117.0,14.0,5.0,,,,
128,,,1.0,p,2.0,2016_Mar_29_1307,b,ring,ilya5c-p,middle_ring,120.023621569,m,None,,,,,,"[1, 0, 1]",10,0.0,1.0,"[2, 3]",2.0,0.56439991787,7.0,118.0,14.0,6.0,,,,
129,,,1.0,p,2.0,2016_Mar_29_1307,i,index,ilya5c-p,middle_ring,120.023621569,m,None,,,,,,"[1, 0, 1]",10,0.0,1.0,"[2, 3]",2.0,0.5474273743720001,5.0,119.0,14.0,7.0,,,,
0,,,,,,2016_Mar_29_1309,,,ilya5c-p,,119.99797155799999,m,,,,,space,67.1080177972,,11,,,,,,,,,,,,,
1,,,1.0,g,1.0,2016_Mar_29_1309,m,middle,ilya5c-p,middle_ring,119.99797155799999,m,,,,,,,"[1, 0, 1]",11,1.0,0.0,"[2, 3]",1.0,0.688458440998,,,,,2.0,0.0,0.0,0.0
2,,,1.0,g,1.0,2016_Mar_29_1309,b,ring,ilya5c-p,middle_ring,119.99797155799999,m,,,,,,,"[1, 0, 1]",11,1.0,0.0,"[2, 3]",1.0,0.864632344046,,,,,3.0,1.0,0.0,1.0
3,,,1.0,g,1.0,2016_Mar_29_1309,i,index,ilya5c-p,middle_ring,119.99797155799999,m,,,,,,,"[1, 0, 1]",11,1.0,0.0,"[2, 3]",1.0,0.7896646422429999,,,,,1.0,2.0,0.0,2.0
4,,,1.0,p,2.0,2016_Mar_29_1309,0,baseline,ilya5c-p,middle_ring,119.99797155799999,m,,,,,,,"[1, 0, 1]",11,1.0,0.0,"[2, 3]",2.0,0.489662529287,,,,,4.0,3.0,0.0,3.0
5,,,1.0,p,2.0,2016_Mar_29_1309,m,middle,ilya5c-p,middle_ring,119.99797155799999,m,,,,,,,"[1, 0, 1]",11,1.0,0.0,"[2, 3]",2.0,0.714678225571,,,,,6.0,4.0,0.0,4.0
6,,,1.0,p,2.0,2016_Mar_29_1309,b,ring,ilya5c-p,middle_ring,119.99797155799999,m,,,,,,,"[1, 0, 1]",11,1.0,0.0,"[2, 3]",2.0,0.6647401052740001,,,,,7.0,5.0,0.0,5.0
7,,,1.0,p,2.0,2016_Mar_29_1309,i,index,ilya5c-p,middle_ring,119.99797155799999,m,,,,,,,"[1, 0, 1]",11,1.0,0.0,"[2, 3]",2.0,0.664686979316,,,,,5.0,6.0,0.0,6.0
8,,,1.0,g,1.0,2016_Mar_29_1309,0,baseline,ilya5c-p,middle_ring,119.99797155799999,m,,,,,,,"[1, 0, 1]",11,1.0,0.0,"[2, 3]",1.0,0.664651058874,,,,,0.0,7.0,0.0,7.0
9,,,,,,2016_Mar_29_1309,,,ilya5c-p,,119.99797155799999,m,,,space,16.492330842,,,,11,,,,,,,,,,,,,
10,,,0.0,p,2.0,2016_Mar_29_1309,m,middle,ilya5c-p,middle_ring,119.99797155799999,m,space,5.741986126869999,,,,,"[1, 0, 1]",11,0.0,1.0,"[2, 3]",1.0,0.8927592306550001,6.0,0.0,0.0,0.0,,,,
11,,,0.0,g,1.0,2016_Mar_29_1309,0,baseline,ilya5c-p,middle_ring,119.99797155799999,m,None,,,,,,"[1, 0, 1]",11,0.0,0.0,"[2, 3]",2.0,1.19743824104,0.0,1.0,0.0,1.0,,,,
12,,,1.0,g,1.0,2016_Mar_29_1309,0,baseline,ilya5c-p,middle_ring,119.99797155799999,m,None,,,,,,"[1, 0, 1]",11,0.0,1.0,"[2, 3]",1.0,0.614411388289,0.0,2.0,0.0,2.0,,,,
13,,,1.0,g,1.0,2016_Mar_29_1309,i,index,ilya5c-p,middle_ring,119.99797155799999,m,None,,,,,,"[1, 0, 1]",11,0.0,1.0,"[2, 3]",1.0,0.739432216096,1.0,3.0,0.0,3.0,,,,
14,,,1.0,p,2.0,2016_Mar_29_1309,0,baseline,ilya5c-p,middle_ring,119.99797155799999,m,None,,,,,,"[1, 0, 1]",11,0.0,1.0,"[2, 3]",2.0,0.939430706812,4.0,4.0,0.0,4.0,,,,
15,,,1.0,p,2.0,2016_Mar_29_1309,i,index,ilya5c-p,middle_ring,119.99797155799999,m,None,,,,,,"[1, 0, 1]",11,0.0,1.0,"[2, 3]",2.0,0.972765146956,5.0,5.0,0.0,5.0,,,,
16,,,1.0,p,2.0,2016_Mar_29_1309,i,index,ilya5c-p,middle_ring,119.99797155799999,m,None,,,,,,"[1, 0, 1]",11,0.0,1.0,"[2, 3]",2.0,0.5894319142369999,5.0,6.0,0.0,6.0,,,,
17,,,1.0,g,1.0,2016_Mar_29_1309,m,middle,ilya5c-p,middle_ring,119.99797155799999,m,None,,,,,,"[1, 0, 1]",11,0.0,1.0,"[2, 3]",1.0,0.614317210389,2.0,7.0,0.0,7.0,,,,
18,,,0.0,g,1.0,2016_Mar_29_1309,b,ring,ilya5c-p,middle_ring,119.99797155799999,m,None,,,,,,"[1, 0, 1]",11,0.0,1.0,"[2, 3]",2.0,0.489428291997,3.0,8.0,1.0,0.0,,,,
19,,,0.0,p,2.0,2016_Mar_29_1309,m,middle,ilya5c-p,middle_ring,119.99797155799999,m,None,,,,,,"[1, 0, 1]",11,0.0,1.0,"[2, 3]",1.0,0.439414104939,6.0,9.0,1.0,1.0,,,,
20,,,1.0,p,2.0,2016_Mar_29_1309,i,index,ilya5c-p,middle_ring,119.99797155799999,m,None,,,,,,"[1, 0, 1]",11,0.0,1.0,"[2, 3]",2.0,0.7394240660629999,5.0,10.0,1.0,2.0,,,,
21,,,1.0,g,1.0,2016_Mar_29_1309,m,middle,ilya5c-p,middle_ring,119.99797155799999,m,None,,,,,,"[1, 0, 1]",11,0.0,1.0,"[2, 3]",1.0,0.589411991966,2.0,11.0,1.0,3.0,,,,
22,,,1.0,p,2.0,2016_Mar_29_1309,b,ring,ilya5c-p,middle_ring,119.99797155799999,m,None,,,,,,"[1, 0, 1]",11,0.0,1.0,"[2, 3]",2.0,0.664422556814,7.0,12.0,1.0,4.0,,,,
23,,,1.0,p,2.0,2016_Mar_29_1309,0,baseline,ilya5c-p,middle_ring,119.99797155799999,m,None,,,,,,"[1, 0, 1]",11,0.0,1.0,"[2, 3]",2.0,0.564376373424,4.0,13.0,1.0,5.0,,,,
24,,,1.0,p,2.0,2016_Mar_29_1309,0,baseline,ilya5c-p,middle_ring,119.99797155799999,m,None,,,,,,"[1, 0, 1]",11,0.0,1.0,"[2, 3]",2.0,0.48934890489699995,4.0,14.0,1.0,6.0,,,,
25,,,1.0,g,1.0,2016_Mar_29_1309,i,index,ilya5c-p,middle_ring,119.99797155799999,m,None,,,,,,"[1, 0, 1]",11,0.0,1.0,"[2, 3]",1.0,0.5143968993770001,1.0,15.0,1.0,7.0,,,,
26,,,1.0,g,1.0,2016_Mar_29_1309,0,baseline,ilya5c-p,middle_ring,119.99797155799999,m,None,,,,,,"[1, 0, 1]",11,0.0,1.0,"[2, 3]",1.0,0.5394325179199999,0.0,16.0,2.0,0.0,,,,
27,,,1.0,g,1.0,2016_Mar_29_1309,i,index,ilya5c-p,middle_ring,119.99797155799999,m,None,,,,,,"[1, 0, 1]",11,0.0,1.0,"[2, 3]",1.0,0.589423764233,1.0,17.0,2.0,1.0,,,,
28,,,1.0,g,1.0,2016_Mar_29_1309,i,index,ilya5c-p,middle_ring,119.99797155799999,m,None,,,,,,"[1, 0, 1]",11,0.0,1.0,"[2, 3]",1.0,0.564378788227,1.0,18.0,2.0,2.0,,,,
29,,,1.0,p,2.0,2016_Mar_29_1309,m,middle,ilya5c-p,middle_ring,119.99797155799999,m,None,,,,,,"[1, 0, 1]",11,0.0,1.0,"[2, 3]",2.0,0.639418330885,6.0,19.0,2.0,3.0,,,,
30,,,0.0,g,1.0,2016_Mar_29_1309,b,ring,ilya5c-p,middle_ring,119.99797155799999,m,None,,,,,,"[1, 0, 1]",11,0.0,1.0,"[2, 3]",2.0,0.5394008234409999,3.0,20.0,2.0,4.0,,,,
31,,,1.0,p,2.0,2016_Mar_29_1309,i,index,ilya5c-p,middle_ring,119.99797155799999,m,None,,,,,,"[1, 0, 1]",11,0.0,1.0,"[2, 3]",2.0,0.83945757165,5.0,21.0,2.0,5.0,,,,
32,,,1.0,p,2.0,2016_Mar_29_1309,0,baseline,ilya5c-p,middle_ring,119.99797155799999,m,None,,,,,,"[1, 0, 1]",11,0.0,1.0,"[2, 3]",2.0,0.589369430816,4.0,22.0,2.0,6.0,,,,
33,,,1.0,p,2.0,2016_Mar_29_1309,0,baseline,ilya5c-p,middle_ring,119.99797155799999,m,None,,,,,,"[1, 0, 1]",11,0.0,1.0,"[2, 3]",2.0,0.6394020308780001,4.0,23.0,2.0,7.0,,,,
34,,,1.0,p,2.0,2016_Mar_29_1309,i,index,ilya5c-p,middle_ring,119.99797155799999,m,None,,,,,,"[1, 0, 1]",11,0.0,1.0,"[2, 3]",2.0,0.914430706818,5.0,24.0,3.0,0.0,,,,
35,,,1.0,g,1.0,2016_Mar_29_1309,b,ring,ilya5c-p,middle_ring,119.99797155799999,m,None,,,,,,"[1, 0, 1]",11,0.0,1.0,"[2, 3]",1.0,0.764422556791,3.0,25.0,3.0,1.0,,,,
36,,,1.0,g,1.0,2016_Mar_29_1309,b,ring,ilya5c-p,middle_ring,119.99797155799999,m,None,,,,,,"[1, 0, 1]",11,0.0,1.0,"[2, 3]",1.0,0.639421047553,3.0,26.0,3.0,2.0,,,,
37,,,1.0,g,1.0,2016_Mar_29_1309,m,middle,ilya5c-p,middle_ring,119.99797155799999,m,None,,,,,,"[1, 0, 1]",11,0.0,1.0,"[2, 3]",1.0,0.439365506752,2.0,27.0,3.0,3.0,,,,
38,,,1.0,g,1.0,2016_Mar_29_1309,0,baseline,ilya5c-p,middle_ring,119.99797155799999,m,None,,,,,,"[1, 0, 1]",11,0.0,1.0,"[2, 3]",1.0,0.464461193883,0.0,28.0,3.0,4.0,,,,
39,,,1.0,g,1.0,2016_Mar_29_1309,i,index,ilya5c-p,middle_ring,119.99797155799999,m,None,,,,,,"[1, 0, 1]",11,0.0,1.0,"[2, 3]",1.0,0.53940414381,1.0,29.0,3.0,5.0,,,,
40,,,1.0,g,1.0,2016_Mar_29_1309,m,middle,ilya5c-p,middle_ring,119.99797155799999,m,None,,,,,,"[1, 0, 1]",11,0.0,1.0,"[2, 3]",1.0,0.514392371578,2.0,30.0,3.0,6.0,,,,
41,,,1.0,p,2.0,2016_Mar_29_1309,m,middle,ilya5c-p,middle_ring,119.99797155799999,m,None,,,,,,"[1, 0, 1]",11,0.0,1.0,"[2, 3]",2.0,0.639383316038,6.0,31.0,3.0,7.0,,,,
42,,,1.0,g,1.0,2016_Mar_29_1309,i,index,ilya5c-p,middle_ring,119.99797155799999,m,None,,,,,,"[1, 0, 1]",11,0.0,1.0,"[2, 3]",1.0,1.14778084325,1.0,32.0,4.0,0.0,,,,
43,,,1.0,g,1.0,2016_Mar_29_1309,i,index,ilya5c-p,middle_ring,119.99797155799999,m,None,,,,,,"[1, 0, 1]",11,0.0,1.0,"[2, 3]",1.0,0.6144089734570001,1.0,33.0,4.0,1.0,,,,
44,,,1.0,g,1.0,2016_Mar_29_1309,b,ring,ilya5c-p,middle_ring,119.99797155799999,m,None,,,,,,"[1, 0, 1]",11,0.0,1.0,"[2, 3]",1.0,0.6644464031539999,3.0,34.0,4.0,2.0,,,,
45,,,1.0,p,2.0,2016_Mar_29_1309,0,baseline,ilya5c-p,middle_ring,119.99797155799999,m,None,,,,,,"[1, 0, 1]",11,0.0,1.0,"[2, 3]",2.0,0.589427084601,4.0,35.0,4.0,3.0,,,,
46,,,1.0,p,2.0,2016_Mar_29_1309,m,middle,ilya5c-p,middle_ring,119.99797155799999,m,None,,,,,,"[1, 0, 1]",11,0.0,1.0,"[2, 3]",2.0,0.614392673449,6.0,36.0,4.0,4.0,,,,
47,,,0.0,p,2.0,2016_Mar_29_1309,m,middle,ilya5c-p,middle_ring,119.99797155799999,m,None,,,,,,"[1, 0, 1]",11,0.0,1.0,"[2, 3]",1.0,0.889424971623,6.0,37.0,4.0,5.0,,,,
48,,,1.0,g,1.0,2016_Mar_29_1309,m,middle,ilya5c-p,middle_ring,119.99797155799999,m,None,,,,,,"[1, 0, 1]",11,0.0,1.0,"[2, 3]",1.0,0.914427688285,2.0,38.0,4.0,6.0,,,,
49,,,1.0,p,2.0,2016_Mar_29_1309,i,index,ilya5c-p,middle_ring,119.99797155799999,m,None,,,,,,"[1, 0, 1]",11,0.0,1.0,"[2, 3]",2.0,0.46441953829800003,5.0,39.0,4.0,7.0,,,,
50,,,1.0,g,1.0,2016_Mar_29_1309,i,index,ilya5c-p,middle_ring,119.99797155799999,m,None,,,,,,"[1, 0, 1]",11,0.0,1.0,"[2, 3]",1.0,0.589403540127,1.0,40.0,5.0,0.0,,,,
51,,,0.0,g,1.0,2016_Mar_29_1309,i,index,ilya5c-p,middle_ring,119.99797155799999,m,None,,,,,,"[1, 0, 1]",11,0.0,0.0,"[2, 3]",2.0,0.764421349389,1.0,41.0,5.0,1.0,,,,
52,,,1.0,p,2.0,2016_Mar_29_1309,i,index,ilya5c-p,middle_ring,119.99797155799999,m,None,,,,,,"[1, 0, 1]",11,0.0,1.0,"[2, 3]",2.0,0.6393993141800001,5.0,42.0,5.0,2.0,,,,
53,,,1.0,p,2.0,2016_Mar_29_1309,m,middle,ilya5c-p,middle_ring,119.99797155799999,m,None,,,,,,"[1, 0, 1]",11,0.0,1.0,"[2, 3]",2.0,0.51441289752,6.0,43.0,5.0,3.0,,,,
54,,,1.0,p,2.0,2016_Mar_29_1309,b,ring,ilya5c-p,middle_ring,119.99797155799999,m,None,,,,,,"[1, 0, 1]",11,0.0,1.0,"[2, 3]",2.0,0.48938754194899997,7.0,44.0,5.0,4.0,,,,
55,,,1.0,g,1.0,2016_Mar_29_1309,0,baseline,ilya5c-p,middle_ring,119.99797155799999,m,None,,,,,,"[1, 0, 1]",11,0.0,1.0,"[2, 3]",1.0,0.4893513197,0.0,45.0,5.0,5.0,,,,
56,,,1.0,p,2.0,2016_Mar_29_1309,m,middle,ilya5c-p,middle_ring,119.99797155799999,m,None,,,,,,"[1, 0, 1]",11,0.0,1.0,"[2, 3]",2.0,0.639429197557,6.0,46.0,5.0,6.0,,,,
57,,,0.0,g,1.0,2016_Mar_29_1309,0,baseline,ilya5c-p,middle_ring,119.99797155799999,m,None,,,,,,"[1, 0, 1]",11,0.0,1.0,"[2, 3]",2.0,-0.558218468536,0.0,47.0,5.0,7.0,,,,
58,,,1.0,p,2.0,2016_Mar_29_1309,m,middle,ilya5c-p,middle_ring,119.99797155799999,m,None,,,,,,"[1, 0, 1]",11,0.0,1.0,"[2, 3]",2.0,0.46436912895099997,6.0,48.0,6.0,0.0,,,,
59,,,1.0,p,2.0,2016_Mar_29_1309,b,ring,ilya5c-p,middle_ring,119.99797155799999,m,None,,,,,,"[1, 0, 1]",11,0.0,1.0,"[2, 3]",2.0,0.614423160526,7.0,49.0,6.0,1.0,,,,
60,,,1.0,p,2.0,2016_Mar_29_1309,b,ring,ilya5c-p,middle_ring,119.99797155799999,m,None,,,,,,"[1, 0, 1]",11,0.0,1.0,"[2, 3]",2.0,0.43938512712800004,7.0,50.0,6.0,2.0,,,,
61,,,1.0,p,2.0,2016_Mar_29_1309,b,ring,ilya5c-p,middle_ring,119.99797155799999,m,None,,,,,,"[1, 0, 1]",11,0.0,1.0,"[2, 3]",2.0,0.489423764227,7.0,51.0,6.0,3.0,,,,
62,,,1.0,g,1.0,2016_Mar_29_1309,m,middle,ilya5c-p,middle_ring,119.99797155799999,m,None,,,,,,"[1, 0, 1]",11,0.0,1.0,"[2, 3]",1.0,0.6143965975469999,2.0,52.0,6.0,4.0,,,,
63,,,1.0,g,1.0,2016_Mar_29_1309,i,index,ilya5c-p,middle_ring,119.99797155799999,m,None,,,,,,"[1, 0, 1]",11,0.0,1.0,"[2, 3]",1.0,0.739430103129,1.0,53.0,6.0,5.0,,,,
64,,,1.0,g,1.0,2016_Mar_29_1309,b,ring,ilya5c-p,middle_ring,119.99797155799999,m,None,,,,,,"[1, 0, 1]",11,0.0,1.0,"[2, 3]",1.0,0.639433423491,3.0,54.0,6.0,6.0,,,,
65,,,0.0,g,1.0,2016_Mar_29_1309,i,index,ilya5c-p,middle_ring,119.99797155799999,m,None,,,,,,"[1, 0, 1]",11,0.0,1.0,"[2, 3]",2.0,-0.558277933395,1.0,55.0,6.0,7.0,,,,
66,,,1.0,p,2.0,2016_Mar_29_1309,m,middle,ilya5c-p,middle_ring,119.99797155799999,m,None,,,,,,"[1, 0, 1]",11,0.0,1.0,"[2, 3]",2.0,0.414358564155,6.0,56.0,7.0,0.0,,,,
67,,,1.0,p,2.0,2016_Mar_29_1309,0,baseline,ilya5c-p,middle_ring,119.99797155799999,m,None,,,,,,"[1, 0, 1]",11,0.0,1.0,"[2, 3]",2.0,0.389097160163,4.0,57.0,7.0,1.0,,,,
68,,,1.0,p,2.0,2016_Mar_29_1309,b,ring,ilya5c-p,middle_ring,119.99797155799999,m,None,,,,,,"[1, 0, 1]",11,0.0,1.0,"[2, 3]",2.0,0.564402634567,7.0,58.0,7.0,2.0,,,,
69,,,1.0,g,1.0,2016_Mar_29_1309,0,baseline,ilya5c-p,middle_ring,119.99797155799999,m,None,,,,,,"[1, 0, 1]",11,0.0,1.0,"[2, 3]",1.0,-0.558133949906,0.0,59.0,7.0,3.0,,,,
70,,,1.0,g,1.0,2016_Mar_29_1309,i,index,ilya5c-p,middle_ring,119.99797155799999,m,None,,,,,,"[1, 0, 1]",11,0.0,1.0,"[2, 3]",1.0,0.514488662416,1.0,60.0,7.0,4.0,,,,
71,,,1.0,p,2.0,2016_Mar_29_1309,i,index,ilya5c-p,middle_ring,119.99797155799999,m,None,,,,,,"[1, 0, 1]",11,0.0,1.0,"[2, 3]",2.0,0.814402030837,5.0,61.0,7.0,5.0,,,,
72,,,1.0,g,1.0,2016_Mar_29_1309,0,baseline,ilya5c-p,middle_ring,119.99797155799999,m,None,,,,,,"[1, 0, 1]",11,0.0,1.0,"[2, 3]",1.0,0.514412595684,0.0,62.0,7.0,6.0,,,,
73,,,1.0,g,1.0,2016_Mar_29_1309,i,index,ilya5c-p,middle_ring,119.99797155799999,m,None,,,,,,"[1, 0, 1]",11,0.0,1.0,"[2, 3]",1.0,0.589385127152,1.0,63.0,7.0,7.0,,,,
74,,,1.0,g,1.0,2016_Mar_29_1309,m,middle,ilya5c-p,middle_ring,119.99797155799999,m,None,,,,,,"[1, 0, 1]",11,0.0,1.0,"[2, 3]",1.0,1.0310283499700001,2.0,64.0,8.0,0.0,,,,
75,,,1.0,p,2.0,2016_Mar_29_1309,m,middle,ilya5c-p,middle_ring,119.99797155799999,m,None,,,,,,"[1, 0, 1]",11,0.0,1.0,"[2, 3]",2.0,0.639426782725,6.0,65.0,8.0,1.0,,,,
76,,,1.0,p,2.0,2016_Mar_29_1309,i,index,ilya5c-p,middle_ring,119.99797155799999,m,None,,,,,,"[1, 0, 1]",11,0.0,1.0,"[2, 3]",2.0,0.46439267342600005,5.0,66.0,8.0,2.0,,,,
77,,,1.0,p,2.0,2016_Mar_29_1309,b,ring,ilya5c-p,middle_ring,119.99797155799999,m,None,,,,,,"[1, 0, 1]",11,0.0,1.0,"[2, 3]",2.0,0.439401729001,7.0,67.0,8.0,3.0,,,,
78,,,1.0,g,1.0,2016_Mar_29_1309,m,middle,ilya5c-p,middle_ring,119.99797155799999,m,None,,,,,,"[1, 0, 1]",11,0.0,1.0,"[2, 3]",1.0,0.5643621863830001,2.0,68.0,8.0,4.0,,,,
79,,,1.0,p,2.0,2016_Mar_29_1309,0,baseline,ilya5c-p,middle_ring,119.99797155799999,m,None,,,,,,"[1, 0, 1]",11,0.0,1.0,"[2, 3]",2.0,0.639421349389,4.0,69.0,8.0,5.0,,,,
80,,,1.0,p,2.0,2016_Mar_29_1309,0,baseline,ilya5c-p,middle_ring,119.99797155799999,m,None,,,,,,"[1, 0, 1]",11,0.0,1.0,"[2, 3]",2.0,0.48938995678099995,4.0,70.0,8.0,6.0,,,,
81,,,1.0,p,2.0,2016_Mar_29_1309,0,baseline,ilya5c-p,middle_ring,119.99797155799999,m,None,,,,,,"[1, 0, 1]",11,0.0,1.0,"[2, 3]",2.0,0.43945213831999996,4.0,71.0,8.0,7.0,,,,
82,,,1.0,p,2.0,2016_Mar_29_1309,i,index,ilya5c-p,middle_ring,119.99797155799999,m,None,,,,,,"[1, 0, 1]",11,0.0,1.0,"[2, 3]",2.0,0.7143778826839999,5.0,72.0,9.0,0.0,,,,
83,,,1.0,p,2.0,2016_Mar_29_1309,i,index,ilya5c-p,middle_ring,119.99797155799999,m,None,,,,,,"[1, 0, 1]",11,0.0,1.0,"[2, 3]",2.0,0.614385428982,5.0,73.0,9.0,1.0,,,,
84,,,1.0,p,2.0,2016_Mar_29_1309,b,ring,ilya5c-p,middle_ring,119.99797155799999,m,None,,,,,,"[1, 0, 1]",11,0.0,1.0,"[2, 3]",2.0,0.539368223397,7.0,74.0,9.0,2.0,,,,
85,,,1.0,g,1.0,2016_Mar_29_1309,b,ring,ilya5c-p,middle_ring,119.99797155799999,m,None,,,,,,"[1, 0, 1]",11,0.0,1.0,"[2, 3]",1.0,0.664433423486,3.0,75.0,9.0,3.0,,,,
86,,,1.0,p,2.0,2016_Mar_29_1309,i,index,ilya5c-p,middle_ring,119.99797155799999,m,None,,,,,,"[1, 0, 1]",11,0.0,1.0,"[2, 3]",2.0,0.639403841951,5.0,76.0,9.0,4.0,,,,
87,,,1.0,g,1.0,2016_Mar_29_1309,m,middle,ilya5c-p,middle_ring,119.99797155799999,m,None,,,,,,"[1, 0, 1]",11,0.0,1.0,"[2, 3]",1.0,0.539407464179,2.0,77.0,9.0,5.0,,,,
88,,,1.0,p,2.0,2016_Mar_29_1309,m,middle,ilya5c-p,middle_ring,119.99797155799999,m,None,,,,,,"[1, 0, 1]",11,0.0,1.0,"[2, 3]",2.0,0.339347697472,6.0,78.0,9.0,6.0,,,,
89,,,1.0,g,1.0,2016_Mar_29_1309,b,ring,ilya5c-p,middle_ring,119.99797155799999,m,None,,,,,,"[1, 0, 1]",11,0.0,1.0,"[2, 3]",1.0,0.589389353057,3.0,79.0,9.0,7.0,,,,
90,,,1.0,g,1.0,2016_Mar_29_1309,0,baseline,ilya5c-p,middle_ring,119.99797155799999,m,None,,,,,,"[1, 0, 1]",11,0.0,1.0,"[2, 3]",1.0,0.739405049387,0.0,80.0,10.0,0.0,,,,
91,,,1.0,g,1.0,2016_Mar_29_1309,0,baseline,ilya5c-p,middle_ring,119.99797155799999,m,None,,,,,,"[1, 0, 1]",11,0.0,0.0,"[2, 3]",1.0,0.714422254966,0.0,81.0,10.0,1.0,,,,
92,,,1.0,g,1.0,2016_Mar_29_1309,0,baseline,ilya5c-p,middle_ring,119.99797155799999,m,None,,,,,,"[1, 0, 1]",11,0.0,1.0,"[2, 3]",1.0,0.5144023327130001,0.0,82.0,10.0,2.0,,,,
93,,,1.0,p,2.0,2016_Mar_29_1309,0,baseline,ilya5c-p,middle_ring,119.99797155799999,m,None,,,,,,"[1, 0, 1]",11,0.0,1.0,"[2, 3]",2.0,0.589419538298,4.0,83.0,10.0,3.0,,,,
94,,,0.0,g,1.0,2016_Mar_29_1309,b,ring,ilya5c-p,middle_ring,119.99797155799999,m,None,,,,,,"[1, 0, 1]",11,0.0,1.0,"[2, 3]",2.0,-0.558241107445,3.0,84.0,10.0,4.0,,,,
95,,,1.0,p,2.0,2016_Mar_29_1309,b,ring,ilya5c-p,middle_ring,119.99797155799999,m,None,,,,,,"[1, 0, 1]",11,0.0,1.0,"[2, 3]",2.0,0.614391767883,7.0,85.0,10.0,5.0,,,,
96,,,1.0,p,2.0,2016_Mar_29_1309,i,index,ilya5c-p,middle_ring,119.99797155799999,m,None,,,,,,"[1, 0, 1]",11,0.0,1.0,"[2, 3]",2.0,0.714411388265,5.0,86.0,10.0,6.0,,,,
97,,,1.0,p,2.0,2016_Mar_29_1309,i,index,ilya5c-p,middle_ring,119.99797155799999,m,None,,,,,,"[1, 0, 1]",11,0.0,1.0,"[2, 3]",2.0,0.18940052159899998,5.0,87.0,10.0,7.0,,,,
98,,,1.0,p,2.0,2016_Mar_29_1309,m,middle,ilya5c-p,middle_ring,119.99797155799999,m,None,,,,,,"[1, 0, 1]",11,0.0,1.0,"[2, 3]",2.0,0.5144355364590001,6.0,88.0,11.0,0.0,,,,
99,,,1.0,g,1.0,2016_Mar_29_1309,0,baseline,ilya5c-p,middle_ring,119.99797155799999,m,None,,,,,,"[1, 0, 1]",11,0.0,1.0,"[2, 3]",1.0,0.5394089734449999,0.0,89.0,11.0,1.0,,,,
100,,,1.0,p,2.0,2016_Mar_29_1309,b,ring,ilya5c-p,middle_ring,119.99797155799999,m,None,,,,,,"[1, 0, 1]",11,0.0,1.0,"[2, 3]",2.0,0.489431008665,7.0,90.0,11.0,2.0,,,,
101,,,1.0,g,1.0,2016_Mar_29_1309,m,middle,ilya5c-p,middle_ring,119.99797155799999,m,None,,,,,,"[1, 0, 1]",11,0.0,1.0,"[2, 3]",1.0,0.514395993812,2.0,91.0,11.0,3.0,,,,
102,,,1.0,g,1.0,2016_Mar_29_1309,b,ring,ilya5c-p,middle_ring,119.99797155799999,m,None,,,,,,"[1, 0, 1]",11,0.0,1.0,"[2, 3]",1.0,0.514400521582,3.0,92.0,11.0,4.0,,,,
103,,,1.0,g,1.0,2016_Mar_29_1309,m,middle,ilya5c-p,middle_ring,119.99797155799999,m,None,,,,,,"[1, 0, 1]",11,0.0,1.0,"[2, 3]",1.0,0.589395390094,2.0,93.0,11.0,5.0,,,,
104,,,1.0,g,1.0,2016_Mar_29_1309,0,baseline,ilya5c-p,middle_ring,119.99797155799999,m,None,,,,,,"[1, 0, 1]",11,0.0,1.0,"[2, 3]",1.0,0.639434630893,0.0,94.0,11.0,6.0,,,,
105,,,1.0,g,1.0,2016_Mar_29_1309,0,baseline,ilya5c-p,middle_ring,119.99797155799999,m,None,,,,,,"[1, 0, 1]",11,0.0,1.0,"[2, 3]",1.0,0.5894225568020001,0.0,95.0,11.0,7.0,,,,
106,,,1.0,p,2.0,2016_Mar_29_1309,0,baseline,ilya5c-p,middle_ring,119.99797155799999,m,None,,,,,,"[1, 0, 1]",11,0.0,1.0,"[2, 3]",2.0,0.5643618845180001,4.0,96.0,12.0,0.0,,,,
107,,,1.0,p,2.0,2016_Mar_29_1309,0,baseline,ilya5c-p,middle_ring,119.99797155799999,m,None,,,,,,"[1, 0, 1]",11,0.0,1.0,"[2, 3]",2.0,0.664421651248,4.0,97.0,12.0,1.0,,,,
108,,,1.0,g,1.0,2016_Mar_29_1309,m,middle,ilya5c-p,middle_ring,119.99797155799999,m,None,,,,,,"[1, 0, 1]",11,0.0,1.0,"[2, 3]",1.0,0.7394358383,2.0,98.0,12.0,2.0,,,,
109,,,1.0,p,2.0,2016_Mar_29_1309,i,index,ilya5c-p,middle_ring,119.99797155799999,m,None,,,,,,"[1, 0, 1]",11,0.0,1.0,"[2, 3]",2.0,-0.558184962955,5.0,99.0,12.0,3.0,,,,
110,,,1.0,g,1.0,2016_Mar_29_1309,b,ring,ilya5c-p,middle_ring,119.99797155799999,m,None,,,,,,"[1, 0, 1]",11,0.0,1.0,"[2, 3]",1.0,0.5893965975240001,3.0,100.0,12.0,4.0,,,,
111,,,1.0,g,1.0,2016_Mar_29_1309,b,ring,ilya5c-p,middle_ring,119.99797155799999,m,None,,,,,,"[1, 0, 1]",11,0.0,1.0,"[2, 3]",1.0,0.814395993829,3.0,101.0,12.0,5.0,,,,
112,,,1.0,p,2.0,2016_Mar_29_1309,m,middle,ilya5c-p,middle_ring,119.99797155799999,m,None,,,,,,"[1, 0, 1]",11,0.0,1.0,"[2, 3]",2.0,-0.485608232094,6.0,102.0,12.0,6.0,,,,
113,,,0.0,g,1.0,2016_Mar_29_1309,m,middle,ilya5c-p,middle_ring,119.99797155799999,m,None,,,,,,"[1, 0, 1]",11,0.0,1.0,"[2, 3]",2.0,-0.410640228426,2.0,103.0,12.0,7.0,,,,
114,,,1.0,g,1.0,2016_Mar_29_1309,m,middle,ilya5c-p,middle_ring,119.99797155799999,m,None,,,,,,"[1, 0, 1]",11,0.0,1.0,"[2, 3]",1.0,0.589371543783,2.0,104.0,13.0,0.0,,,,
115,,,1.0,p,2.0,2016_Mar_29_1309,b,ring,ilya5c-p,middle_ring,119.99797155799999,m,None,,,,,,"[1, 0, 1]",11,0.0,1.0,"[2, 3]",2.0,0.589401729024,7.0,105.0,13.0,1.0,,,,
116,,,1.0,p,2.0,2016_Mar_29_1309,0,baseline,ilya5c-p,middle_ring,119.99797155799999,m,None,,,,,,"[1, 0, 1]",11,0.0,1.0,"[2, 3]",2.0,0.414463004997,4.0,106.0,13.0,2.0,,,,
117,,,1.0,p,2.0,2016_Mar_29_1309,m,middle,ilya5c-p,middle_ring,119.99797155799999,m,None,,,,,,"[1, 0, 1]",11,0.0,1.0,"[2, 3]",2.0,-0.557226582316,6.0,107.0,13.0,3.0,,,,
118,,,1.0,g,1.0,2016_Mar_29_1309,i,index,ilya5c-p,middle_ring,119.99797155799999,m,None,,,,,,"[1, 0, 1]",11,0.0,1.0,"[2, 3]",1.0,0.614399616051,1.0,108.0,13.0,4.0,,,,
119,,,1.0,p,2.0,2016_Mar_29_1309,b,ring,ilya5c-p,middle_ring,119.99797155799999,m,None,,,,,,"[1, 0, 1]",11,0.0,1.0,"[2, 3]",2.0,0.589354640074,7.0,109.0,13.0,5.0,,,,
120,,,0.0,g,1.0,2016_Mar_29_1309,i,index,ilya5c-p,middle_ring,119.99797155799999,m,None,,,,,,"[1, 0, 1]",11,0.0,1.0,"[2, 3]",2.0,-0.558194622196,1.0,110.0,13.0,6.0,,,,
121,,,0.0,p,2.0,2016_Mar_29_1309,0,baseline,ilya5c-p,middle_ring,119.99797155799999,m,None,,,,,,"[1, 0, 1]",11,0.0,1.0,"[2, 3]",1.0,-0.558239598179,4.0,111.0,13.0,7.0,,,,
122,,,0.0,p,2.0,2016_Mar_29_1309,b,ring,ilya5c-p,middle_ring,119.99797155799999,m,None,,,,,,"[1, 0, 1]",11,0.0,1.0,"[2, 3]",1.0,-0.26063509696,7.0,112.0,14.0,0.0,,,,
123,,,1.0,p,2.0,2016_Mar_29_1309,b,ring,ilya5c-p,middle_ring,119.99797155799999,m,None,,,,,,"[1, 0, 1]",11,0.0,1.0,"[2, 3]",2.0,0.539411388277,7.0,113.0,14.0,1.0,,,,
124,,,0.0,g,1.0,2016_Mar_29_1309,b,ring,ilya5c-p,middle_ring,119.99797155799999,m,None,,,,,,"[1, 0, 1]",11,0.0,1.0,"[2, 3]",2.0,0.3977376784,3.0,114.0,14.0,2.0,,,,
125,,,0.0,g,1.0,2016_Mar_29_1309,b,ring,ilya5c-p,middle_ring,119.99797155799999,m,None,,,,,,"[1, 0, 1]",11,0.0,1.0,"[2, 3]",2.0,0.189404445669,3.0,115.0,14.0,3.0,,,,
126,,,1.0,g,1.0,2016_Mar_29_1309,m,middle,ilya5c-p,middle_ring,119.99797155799999,m,None,,,,,,"[1, 0, 1]",11,0.0,1.0,"[2, 3]",1.0,0.614289440009,2.0,116.0,14.0,4.0,,,,
127,,,0.0,p,2.0,2016_Mar_29_1309,b,ring,ilya5c-p,middle_ring,119.99797155799999,m,None,,,,,,"[1, 0, 1]",11,0.0,1.0,"[2, 3]",1.0,1.3394071623600001,7.0,117.0,14.0,5.0,,,,
128,,,0.0,g,1.0,2016_Mar_29_1309,b,ring,ilya5c-p,middle_ring,119.99797155799999,m,None,,,,,,"[1, 0, 1]",11,0.0,1.0,"[2, 3]",2.0,0.6644116901129999,3.0,118.0,14.0,6.0,,,,
129,,,0.0,g,1.0,2016_Mar_29_1309,0,baseline,ilya5c-p,middle_ring,119.99797155799999,m,None,,,,,,"[1, 0, 1]",11,0.0,1.0,"[2, 3]",2.0,0.889414104951,0.0,119.0,14.0,7.0,,,,
0,,,,,,2016_Mar_29_1317,,,ilya5c-p,,120.009708356,m,,,,,space,169.331321086,,12,,,,,,,,,,,,,
1,,,0.0,g,1.0,2016_Mar_29_1317,b,ring,ilya5c-p,middle_ring,120.009708356,m,,,,,,,"[1, 0, 1]",12,1.0,0.0,"[2, 3]",0.0,-1.0,,,,,3.0,0.0,0.0,0.0
2,,,1.0,p,2.0,2016_Mar_29_1317,i,index,ilya5c-p,middle_ring,120.009708356,m,,,,,,,"[1, 0, 1]",12,1.0,0.0,"[2, 3]",2.0,0.614654982955,,,,,5.0,1.0,0.0,1.0
3,,,1.0,g,1.0,2016_Mar_29_1317,m,middle,ilya5c-p,middle_ring,120.009708356,m,,,,,,,"[1, 0, 1]",12,1.0,0.0,"[2, 3]",1.0,0.514678527453,,,,,2.0,2.0,0.0,2.0
4,,,1.0,g,1.0,2016_Mar_29_1317,i,index,ilya5c-p,middle_ring,120.009708356,m,,,,,,,"[1, 0, 1]",12,1.0,0.0,"[2, 3]",1.0,0.6396915070920001,,,,,1.0,3.0,0.0,3.0
5,,,1.0,p,2.0,2016_Mar_29_1317,b,ring,ilya5c-p,middle_ring,120.009708356,m,,,,,,,"[1, 0, 1]",12,1.0,0.0,"[2, 3]",2.0,0.53967641448,,,,,7.0,4.0,0.0,4.0
6,,,1.0,p,2.0,2016_Mar_29_1317,0,baseline,ilya5c-p,middle_ring,120.009708356,m,,,,,,,"[1, 0, 1]",12,1.0,0.0,"[2, 3]",2.0,0.53968607375,,,,,4.0,5.0,0.0,5.0
7,,,1.0,p,2.0,2016_Mar_29_1317,m,middle,ilya5c-p,middle_ring,120.009708356,m,,,,,,,"[1, 0, 1]",12,1.0,0.0,"[2, 3]",2.0,0.53969512932,,,,,6.0,6.0,0.0,6.0
8,,,1.0,g,1.0,2016_Mar_29_1317,0,baseline,ilya5c-p,middle_ring,120.009708356,m,,,,,,,"[1, 0, 1]",12,1.0,0.0,"[2, 3]",1.0,0.564662529299,,,,,0.0,7.0,0.0,7.0
9,,,,,,2016_Mar_29_1317,,,ilya5c-p,,120.009708356,m,,,space,10.8090120982,,,,12,,,,,,,,,,,,,
10,,,1.0,p,2.0,2016_Mar_29_1317,0,baseline,ilya5c-p,middle_ring,120.009708356,m,space,3.75034441333,,,,,"[1, 0, 1]",12,0.0,1.0,"[2, 3]",2.0,0.54687709786,4.0,0.0,0.0,0.0,,,,
11,,,1.0,p,2.0,2016_Mar_29_1317,0,baseline,ilya5c-p,middle_ring,120.009708356,m,None,,,,,,"[1, 0, 1]",12,0.0,0.0,"[2, 3]",2.0,0.5389646470699999,4.0,1.0,0.0,1.0,,,,
12,,,1.0,g,1.0,2016_Mar_29_1317,i,index,ilya5c-p,middle_ring,120.009708356,m,None,,,,,,"[1, 0, 1]",12,0.0,1.0,"[2, 3]",1.0,0.5143993141800001,1.0,2.0,0.0,2.0,,,,
13,,,1.0,p,2.0,2016_Mar_29_1317,b,ring,ilya5c-p,middle_ring,120.009708356,m,None,,,,,,"[1, 0, 1]",12,0.0,1.0,"[2, 3]",2.0,0.339409878999,7.0,3.0,0.0,3.0,,,,
14,,,1.0,g,1.0,2016_Mar_29_1317,0,baseline,ilya5c-p,middle_ring,120.009708356,m,None,,,,,,"[1, 0, 1]",12,0.0,1.0,"[2, 3]",1.0,0.314433121615,0.0,4.0,0.0,4.0,,,,
15,,,1.0,g,1.0,2016_Mar_29_1317,0,baseline,ilya5c-p,middle_ring,120.009708356,m,None,,,,,,"[1, 0, 1]",12,0.0,1.0,"[2, 3]",1.0,0.464380901217,0.0,5.0,0.0,5.0,,,,
16,,,0.0,p,2.0,2016_Mar_29_1317,i,index,ilya5c-p,middle_ring,120.009708356,m,None,,,,,,"[1, 0, 1]",12,0.0,1.0,"[2, 3]",1.0,0.41444429015699996,5.0,6.0,0.0,6.0,,,,
17,,,1.0,g,1.0,2016_Mar_29_1317,0,baseline,ilya5c-p,middle_ring,120.009708356,m,None,,,,,,"[1, 0, 1]",12,0.0,1.0,"[2, 3]",1.0,0.48944549757100003,0.0,7.0,0.0,7.0,,,,
18,,,1.0,p,2.0,2016_Mar_29_1317,m,middle,ilya5c-p,middle_ring,120.009708356,m,None,,,,,,"[1, 0, 1]",12,0.0,1.0,"[2, 3]",2.0,0.314352225248,6.0,8.0,1.0,0.0,,,,
19,,,1.0,g,1.0,2016_Mar_29_1317,i,index,ilya5c-p,middle_ring,120.009708356,m,None,,,,,,"[1, 0, 1]",12,0.0,1.0,"[2, 3]",1.0,0.36444700683700004,1.0,9.0,1.0,1.0,,,,
20,,,1.0,g,1.0,2016_Mar_29_1317,m,middle,ilya5c-p,middle_ring,120.009708356,m,None,,,,,,"[1, 0, 1]",12,0.0,1.0,"[2, 3]",1.0,0.464456364248,2.0,10.0,1.0,2.0,,,,
21,,,1.0,g,1.0,2016_Mar_29_1317,i,index,ilya5c-p,middle_ring,120.009708356,m,None,,,,,,"[1, 0, 1]",12,0.0,1.0,"[2, 3]",1.0,0.314459080922,1.0,11.0,1.0,3.0,,,,
22,,,1.0,p,2.0,2016_Mar_29_1317,b,ring,ilya5c-p,middle_ring,120.009708356,m,None,,,,,,"[1, 0, 1]",12,0.0,1.0,"[2, 3]",2.0,0.339424066069,7.0,12.0,1.0,4.0,,,,
23,,,0.0,g,1.0,2016_Mar_29_1317,b,ring,ilya5c-p,middle_ring,120.009708356,m,None,,,,,,"[1, 0, 1]",12,0.0,1.0,"[2, 3]",2.0,0.764458175368,3.0,13.0,1.0,5.0,,,,
24,,,1.0,p,2.0,2016_Mar_29_1317,i,index,ilya5c-p,middle_ring,120.009708356,m,None,,,,,,"[1, 0, 1]",12,0.0,1.0,"[2, 3]",2.0,0.514449723499,5.0,14.0,1.0,6.0,,,,
25,,,1.0,g,1.0,2016_Mar_29_1317,b,ring,ilya5c-p,middle_ring,120.009708356,m,None,,,,,,"[1, 0, 1]",12,0.0,1.0,"[2, 3]",1.0,0.41445455315800006,3.0,15.0,1.0,7.0,,,,
26,,,1.0,p,2.0,2016_Mar_29_1317,b,ring,ilya5c-p,middle_ring,120.009708356,m,None,,,,,,"[1, 0, 1]",12,0.0,1.0,"[2, 3]",2.0,0.564424066074,7.0,16.0,2.0,0.0,,,,
27,,,1.0,p,2.0,2016_Mar_29_1317,i,index,ilya5c-p,middle_ring,120.009708356,m,None,,,,,,"[1, 0, 1]",12,0.0,1.0,"[2, 3]",2.0,0.572418620662,5.0,17.0,2.0,1.0,,,,
28,,,1.0,g,1.0,2016_Mar_29_1317,i,index,ilya5c-p,middle_ring,120.009708356,m,None,,,,,,"[1, 0, 1]",12,0.0,1.0,"[2, 3]",1.0,0.7644313105239999,1.0,18.0,2.0,2.0,,,,
29,,,1.0,g,1.0,2016_Mar_29_1317,b,ring,ilya5c-p,middle_ring,120.009708356,m,None,,,,,,"[1, 0, 1]",12,0.0,1.0,"[2, 3]",1.0,0.589412595667,3.0,19.0,2.0,3.0,,,,
30,,,0.0,p,2.0,2016_Mar_29_1317,m,middle,ilya5c-p,middle_ring,120.009708356,m,None,,,,,,"[1, 0, 1]",12,0.0,1.0,"[2, 3]",1.0,0.664452138325,6.0,20.0,2.0,4.0,,,,
31,,,1.0,g,1.0,2016_Mar_29_1317,i,index,ilya5c-p,middle_ring,120.009708356,m,None,,,,,,"[1, 0, 1]",12,0.0,1.0,"[2, 3]",1.0,0.764497114285,1.0,21.0,2.0,5.0,,,,
32,,,1.0,p,2.0,2016_Mar_29_1317,b,ring,ilya5c-p,middle_ring,120.009708356,m,None,,,,,,"[1, 0, 1]",12,0.0,1.0,"[2, 3]",2.0,0.589435234605,7.0,22.0,2.0,6.0,,,,
33,,,1.0,p,2.0,2016_Mar_29_1317,m,middle,ilya5c-p,middle_ring,120.009708356,m,None,,,,,,"[1, 0, 1]",12,0.0,1.0,"[2, 3]",2.0,0.289407162343,6.0,23.0,2.0,7.0,,,,
34,,,1.0,p,2.0,2016_Mar_29_1317,m,middle,ilya5c-p,middle_ring,120.009708356,m,None,,,,,,"[1, 0, 1]",12,0.0,1.0,"[2, 3]",2.0,0.314425877177,6.0,24.0,3.0,0.0,,,,
35,,,1.0,g,1.0,2016_Mar_29_1317,b,ring,ilya5c-p,middle_ring,120.009708356,m,None,,,,,,"[1, 0, 1]",12,0.0,1.0,"[2, 3]",1.0,0.564315097433,3.0,25.0,3.0,1.0,,,,
36,,,1.0,p,2.0,2016_Mar_29_1317,i,index,ilya5c-p,middle_ring,120.009708356,m,None,,,,,,"[1, 0, 1]",12,0.0,1.0,"[2, 3]",2.0,0.5644361401479999,5.0,26.0,3.0,2.0,,,,
37,,,1.0,p,2.0,2016_Mar_29_1317,b,ring,ilya5c-p,middle_ring,120.009708356,m,None,,,,,,"[1, 0, 1]",12,0.0,1.0,"[2, 3]",2.0,0.464428292003,7.0,27.0,3.0,3.0,,,,
38,,,1.0,g,1.0,2016_Mar_29_1317,b,ring,ilya5c-p,middle_ring,120.009708356,m,None,,,,,,"[1, 0, 1]",12,0.0,1.0,"[2, 3]",1.0,0.589358866009,3.0,28.0,3.0,4.0,,,,
39,,,1.0,p,2.0,2016_Mar_29_1317,0,baseline,ilya5c-p,middle_ring,120.009708356,m,None,,,,,,"[1, 0, 1]",12,0.0,1.0,"[2, 3]",2.0,-0.38561155248499995,4.0,29.0,3.0,5.0,,,,
40,,,1.0,g,1.0,2016_Mar_29_1317,b,ring,ilya5c-p,middle_ring,120.009708356,m,None,,,,,,"[1, 0, 1]",12,0.0,1.0,"[2, 3]",1.0,0.66428793073,3.0,30.0,3.0,6.0,,,,
41,,,1.0,p,2.0,2016_Mar_29_1317,b,ring,ilya5c-p,middle_ring,120.009708356,m,None,,,,,,"[1, 0, 1]",12,0.0,1.0,"[2, 3]",2.0,0.464400219758,7.0,31.0,3.0,7.0,,,,
42,,,1.0,p,2.0,2016_Mar_29_1317,i,index,ilya5c-p,middle_ring,120.009708356,m,None,,,,,,"[1, 0, 1]",12,0.0,1.0,"[2, 3]",2.0,0.389406558648,5.0,32.0,4.0,0.0,,,,
43,,,1.0,g,1.0,2016_Mar_29_1317,b,ring,ilya5c-p,middle_ring,120.009708356,m,None,,,,,,"[1, 0, 1]",12,0.0,1.0,"[2, 3]",1.0,0.639415614217,3.0,33.0,4.0,1.0,,,,
44,,,1.0,p,2.0,2016_Mar_29_1317,b,ring,ilya5c-p,middle_ring,120.009708356,m,None,,,,,,"[1, 0, 1]",12,0.0,1.0,"[2, 3]",2.0,0.589449421646,7.0,34.0,4.0,2.0,,,,
45,,,1.0,p,2.0,2016_Mar_29_1317,0,baseline,ilya5c-p,middle_ring,120.009708356,m,None,,,,,,"[1, 0, 1]",12,0.0,1.0,"[2, 3]",2.0,-0.5582731037600001,4.0,35.0,4.0,3.0,,,,
46,,,1.0,p,2.0,2016_Mar_29_1317,m,middle,ilya5c-p,middle_ring,120.009708356,m,None,,,,,,"[1, 0, 1]",12,0.0,1.0,"[2, 3]",2.0,0.0893769771478,6.0,36.0,4.0,4.0,,,,
47,,,1.0,g,1.0,2016_Mar_29_1317,m,middle,ilya5c-p,middle_ring,120.009708356,m,None,,,,,,"[1, 0, 1]",12,0.0,1.0,"[2, 3]",1.0,0.439391164165,2.0,37.0,4.0,5.0,,,,
48,,,1.0,g,1.0,2016_Mar_29_1317,0,baseline,ilya5c-p,middle_ring,120.009708356,m,None,,,,,,"[1, 0, 1]",12,0.0,1.0,"[2, 3]",1.0,0.339441573507,0.0,38.0,4.0,6.0,,,,
49,,,1.0,g,1.0,2016_Mar_29_1317,b,ring,ilya5c-p,middle_ring,120.009708356,m,None,,,,,,"[1, 0, 1]",12,0.0,1.0,"[2, 3]",1.0,0.38946119387199996,3.0,39.0,4.0,7.0,,,,
50,,,1.0,p,2.0,2016_Mar_29_1317,i,index,ilya5c-p,middle_ring,120.009708356,m,None,,,,,,"[1, 0, 1]",12,0.0,1.0,"[2, 3]",2.0,0.664430103117,5.0,40.0,5.0,0.0,,,,
51,,,1.0,p,2.0,2016_Mar_29_1317,0,baseline,ilya5c-p,middle_ring,120.009708356,m,None,,,,,,"[1, 0, 1]",12,0.0,0.0,"[2, 3]",2.0,0.614423462362,4.0,41.0,5.0,1.0,,,,
52,,,1.0,p,2.0,2016_Mar_29_1317,i,index,ilya5c-p,middle_ring,120.009708356,m,None,,,,,,"[1, 0, 1]",12,0.0,1.0,"[2, 3]",2.0,0.46442919753999995,5.0,42.0,5.0,2.0,,,,
53,,,1.0,g,1.0,2016_Mar_29_1317,i,index,ilya5c-p,middle_ring,120.009708356,m,None,,,,,,"[1, 0, 1]",12,0.0,1.0,"[2, 3]",1.0,0.8144464031190001,1.0,43.0,5.0,3.0,,,,
54,,,1.0,p,2.0,2016_Mar_29_1317,m,middle,ilya5c-p,middle_ring,120.009708356,m,None,,,,,,"[1, 0, 1]",12,0.0,1.0,"[2, 3]",2.0,0.5644062568,6.0,44.0,5.0,4.0,,,,
55,,,1.0,g,1.0,2016_Mar_29_1317,i,index,ilya5c-p,middle_ring,120.009708356,m,None,,,,,,"[1, 0, 1]",12,0.0,1.0,"[2, 3]",1.0,0.514470853171,1.0,45.0,5.0,5.0,,,,
56,,,1.0,p,2.0,2016_Mar_29_1317,i,index,ilya5c-p,middle_ring,120.009708356,m,None,,,,,,"[1, 0, 1]",12,0.0,1.0,"[2, 3]",2.0,0.5394264808829999,5.0,46.0,5.0,6.0,,,,
57,,,1.0,p,2.0,2016_Mar_29_1317,i,index,ilya5c-p,middle_ring,120.009708356,m,None,,,,,,"[1, 0, 1]",12,0.0,1.0,"[2, 3]",2.0,0.5394325179199999,5.0,47.0,5.0,7.0,,,,
58,,,1.0,g,1.0,2016_Mar_29_1317,m,middle,ilya5c-p,middle_ring,120.009708356,m,None,,,,,,"[1, 0, 1]",12,0.0,1.0,"[2, 3]",1.0,0.38939689937700006,2.0,48.0,6.0,0.0,,,,
59,,,1.0,g,1.0,2016_Mar_29_1317,m,middle,ilya5c-p,middle_ring,120.009708356,m,None,,,,,,"[1, 0, 1]",12,0.0,1.0,"[2, 3]",1.0,0.439387240125,2.0,49.0,6.0,1.0,,,,
60,,,1.0,p,2.0,2016_Mar_29_1317,b,ring,ilya5c-p,middle_ring,120.009708356,m,None,,,,,,"[1, 0, 1]",12,0.0,1.0,"[2, 3]",2.0,0.48942889569799997,7.0,50.0,6.0,2.0,,,,
61,,,1.0,g,1.0,2016_Mar_29_1317,0,baseline,ilya5c-p,middle_ring,120.009708356,m,None,,,,,,"[1, 0, 1]",12,0.0,1.0,"[2, 3]",1.0,0.414428895715,0.0,51.0,6.0,3.0,,,,
62,,,1.0,g,1.0,2016_Mar_29_1317,m,middle,ilya5c-p,middle_ring,120.009708356,m,None,,,,,,"[1, 0, 1]",12,0.0,1.0,"[2, 3]",1.0,0.48948745501999996,2.0,52.0,6.0,4.0,,,,
63,,,1.0,p,2.0,2016_Mar_29_1317,0,baseline,ilya5c-p,middle_ring,120.009708356,m,None,,,,,,"[1, 0, 1]",12,0.0,1.0,"[2, 3]",2.0,0.489453345709,4.0,53.0,6.0,5.0,,,,
64,,,1.0,g,1.0,2016_Mar_29_1317,0,baseline,ilya5c-p,middle_ring,120.009708356,m,None,,,,,,"[1, 0, 1]",12,0.0,1.0,"[2, 3]",1.0,0.7394578735089999,0.0,54.0,6.0,6.0,,,,
65,,,1.0,p,2.0,2016_Mar_29_1317,m,middle,ilya5c-p,middle_ring,120.009708356,m,None,,,,,,"[1, 0, 1]",12,0.0,1.0,"[2, 3]",2.0,0.389406256812,6.0,55.0,6.0,7.0,,,,
66,,,1.0,g,1.0,2016_Mar_29_1317,m,middle,ilya5c-p,middle_ring,120.009708356,m,None,,,,,,"[1, 0, 1]",12,0.0,1.0,"[2, 3]",1.0,0.489421047559,2.0,56.0,7.0,0.0,,,,
67,,,1.0,g,1.0,2016_Mar_29_1317,m,middle,ilya5c-p,middle_ring,120.009708356,m,None,,,,,,"[1, 0, 1]",12,0.0,1.0,"[2, 3]",1.0,0.489430103129,2.0,57.0,7.0,1.0,,,,
68,,,1.0,g,1.0,2016_Mar_29_1317,b,ring,ilya5c-p,middle_ring,120.009708356,m,None,,,,,,"[1, 0, 1]",12,0.0,1.0,"[2, 3]",1.0,0.539419236445,3.0,58.0,7.0,2.0,,,,
69,,,1.0,g,1.0,2016_Mar_29_1317,i,index,ilya5c-p,middle_ring,120.009708356,m,None,,,,,,"[1, 0, 1]",12,0.0,1.0,"[2, 3]",1.0,0.36438301417900004,1.0,59.0,7.0,3.0,,,,
70,,,1.0,g,1.0,2016_Mar_29_1317,b,ring,ilya5c-p,middle_ring,120.009708356,m,None,,,,,,"[1, 0, 1]",12,0.0,1.0,"[2, 3]",1.0,0.539467230932,3.0,60.0,7.0,4.0,,,,
71,,,1.0,g,1.0,2016_Mar_29_1317,0,baseline,ilya5c-p,middle_ring,120.009708356,m,None,,,,,,"[1, 0, 1]",12,0.0,1.0,"[2, 3]",1.0,0.43943161237800005,0.0,61.0,7.0,5.0,,,,
72,,,1.0,p,2.0,2016_Mar_29_1317,b,ring,ilya5c-p,middle_ring,120.009708356,m,None,,,,,,"[1, 0, 1]",12,0.0,1.0,"[2, 3]",2.0,0.26443312162599997,7.0,62.0,7.0,6.0,,,,
73,,,1.0,g,1.0,2016_Mar_29_1317,i,index,ilya5c-p,middle_ring,120.009708356,m,None,,,,,,"[1, 0, 1]",12,0.0,1.0,"[2, 3]",1.0,0.464437649437,1.0,63.0,7.0,7.0,,,,
74,,,1.0,g,1.0,2016_Mar_29_1317,0,baseline,ilya5c-p,middle_ring,120.009708356,m,None,,,,,,"[1, 0, 1]",12,0.0,1.0,"[2, 3]",1.0,0.43939871049699997,0.0,64.0,8.0,0.0,,,,
75,,,1.0,p,2.0,2016_Mar_29_1317,0,baseline,ilya5c-p,middle_ring,120.009708356,m,None,,,,,,"[1, 0, 1]",12,0.0,1.0,"[2, 3]",2.0,0.7144714568539999,4.0,65.0,8.0,1.0,,,,
76,,,1.0,g,1.0,2016_Mar_29_1317,0,baseline,ilya5c-p,middle_ring,120.009708356,m,None,,,,,,"[1, 0, 1]",12,0.0,1.0,"[2, 3]",1.0,0.814445195717,0.0,66.0,8.0,2.0,,,,
77,,,1.0,p,2.0,2016_Mar_29_1317,0,baseline,ilya5c-p,middle_ring,120.009708356,m,None,,,,,,"[1, 0, 1]",12,0.0,1.0,"[2, 3]",2.0,0.489438554968,4.0,67.0,8.0,3.0,,,,
78,,,1.0,p,2.0,2016_Mar_29_1317,0,baseline,ilya5c-p,middle_ring,120.009708356,m,None,,,,,,"[1, 0, 1]",12,0.0,1.0,"[2, 3]",2.0,0.514401729013,4.0,68.0,8.0,4.0,,,,
79,,,1.0,g,1.0,2016_Mar_29_1317,i,index,ilya5c-p,middle_ring,120.009708356,m,None,,,,,,"[1, 0, 1]",12,0.0,1.0,"[2, 3]",1.0,0.7394165197600001,1.0,69.0,8.0,5.0,,,,
80,,,1.0,g,1.0,2016_Mar_29_1317,0,baseline,ilya5c-p,middle_ring,120.009708356,m,None,,,,,,"[1, 0, 1]",12,0.0,1.0,"[2, 3]",1.0,0.6394382531270001,0.0,70.0,8.0,6.0,,,,
81,,,1.0,p,2.0,2016_Mar_29_1317,0,baseline,ilya5c-p,middle_ring,120.009708356,m,None,,,,,,"[1, 0, 1]",12,0.0,1.0,"[2, 3]",2.0,0.539395088269,4.0,71.0,8.0,7.0,,,,
82,,,1.0,p,2.0,2016_Mar_29_1317,0,baseline,ilya5c-p,middle_ring,120.009708356,m,None,,,,,,"[1, 0, 1]",12,0.0,1.0,"[2, 3]",2.0,0.414400823441,4.0,72.0,9.0,0.0,,,,
83,,,1.0,g,1.0,2016_Mar_29_1317,m,middle,ilya5c-p,middle_ring,120.009708356,m,None,,,,,,"[1, 0, 1]",12,0.0,1.0,"[2, 3]",1.0,0.439427084607,2.0,73.0,9.0,1.0,,,,
84,,,0.0,p,2.0,2016_Mar_29_1317,m,middle,ilya5c-p,middle_ring,120.009708356,m,None,,,,,,"[1, 0, 1]",12,0.0,1.0,"[2, 3]",1.0,-0.558322305648,6.0,74.0,9.0,2.0,,,,
85,,,1.0,p,2.0,2016_Mar_29_1317,m,middle,ilya5c-p,middle_ring,120.009708356,m,None,,,,,,"[1, 0, 1]",12,0.0,1.0,"[2, 3]",2.0,0.564430404947,6.0,75.0,9.0,3.0,,,,
86,,,1.0,p,2.0,2016_Mar_29_1317,i,index,ilya5c-p,middle_ring,120.009708356,m,None,,,,,,"[1, 0, 1]",12,0.0,1.0,"[2, 3]",2.0,0.439431008677,5.0,76.0,9.0,4.0,,,,
87,,,1.0,p,2.0,2016_Mar_29_1317,m,middle,ilya5c-p,middle_ring,120.009708356,m,None,,,,,,"[1, 0, 1]",12,0.0,1.0,"[2, 3]",2.0,0.43942014200499996,6.0,77.0,9.0,5.0,,,,
88,,,1.0,g,1.0,2016_Mar_29_1317,0,baseline,ilya5c-p,middle_ring,120.009708356,m,None,,,,,,"[1, 0, 1]",12,0.0,1.0,"[2, 3]",1.0,0.7894515346250001,0.0,78.0,9.0,6.0,,,,
89,,,1.0,g,1.0,2016_Mar_29_1317,m,middle,ilya5c-p,middle_ring,120.009708356,m,None,,,,,,"[1, 0, 1]",12,0.0,1.0,"[2, 3]",1.0,0.38943644202399996,2.0,79.0,9.0,7.0,,,,
90,,,1.0,g,1.0,2016_Mar_29_1317,b,ring,ilya5c-p,middle_ring,120.009708356,m,None,,,,,,"[1, 0, 1]",12,0.0,1.0,"[2, 3]",1.0,0.33939871049099996,3.0,80.0,10.0,0.0,,,,
91,,,1.0,g,1.0,2016_Mar_29_1317,m,middle,ilya5c-p,middle_ring,120.009708356,m,None,,,,,,"[1, 0, 1]",12,0.0,0.0,"[2, 3]",1.0,0.439418934574,2.0,81.0,10.0,1.0,,,,
92,,,1.0,p,2.0,2016_Mar_29_1317,m,middle,ilya5c-p,middle_ring,120.009708356,m,None,,,,,,"[1, 0, 1]",12,0.0,1.0,"[2, 3]",2.0,0.589410180864,6.0,82.0,10.0,2.0,,,,
93,,,1.0,p,2.0,2016_Mar_29_1317,0,baseline,ilya5c-p,middle_ring,120.009708356,m,None,,,,,,"[1, 0, 1]",12,0.0,1.0,"[2, 3]",2.0,0.41442497161700004,4.0,83.0,10.0,3.0,,,,
94,,,1.0,p,2.0,2016_Mar_29_1317,i,index,ilya5c-p,middle_ring,120.009708356,m,None,,,,,,"[1, 0, 1]",12,0.0,1.0,"[2, 3]",2.0,0.439368525256,5.0,84.0,10.0,4.0,,,,
95,,,1.0,g,1.0,2016_Mar_29_1317,m,middle,ilya5c-p,middle_ring,120.009708356,m,None,,,,,,"[1, 0, 1]",12,0.0,1.0,"[2, 3]",1.0,0.564436743848,2.0,85.0,10.0,5.0,,,,
96,,,1.0,g,1.0,2016_Mar_29_1317,i,index,ilya5c-p,middle_ring,120.009708356,m,None,,,,,,"[1, 0, 1]",12,0.0,1.0,"[2, 3]",1.0,0.464441573507,1.0,86.0,10.0,6.0,,,,
97,,,1.0,g,1.0,2016_Mar_29_1317,i,index,ilya5c-p,middle_ring,120.009708356,m,None,,,,,,"[1, 0, 1]",12,0.0,1.0,"[2, 3]",1.0,0.314420443841,1.0,87.0,10.0,7.0,,,,
98,,,1.0,p,2.0,2016_Mar_29_1317,b,ring,ilya5c-p,middle_ring,120.009708356,m,None,,,,,,"[1, 0, 1]",12,0.0,1.0,"[2, 3]",2.0,0.339423160532,7.0,88.0,11.0,0.0,,,,
99,,,1.0,p,2.0,2016_Mar_29_1317,b,ring,ilya5c-p,middle_ring,120.009708356,m,None,,,,,,"[1, 0, 1]",12,0.0,1.0,"[2, 3]",2.0,0.33943674387199996,7.0,89.0,11.0,1.0,,,,
100,,,1.0,g,1.0,2016_Mar_29_1317,m,middle,ilya5c-p,middle_ring,120.009708356,m,None,,,,,,"[1, 0, 1]",12,0.0,1.0,"[2, 3]",1.0,0.33938452342200004,2.0,90.0,11.0,2.0,,,,
101,,,1.0,g,1.0,2016_Mar_29_1317,0,baseline,ilya5c-p,middle_ring,120.009708356,m,None,,,,,,"[1, 0, 1]",12,0.0,1.0,"[2, 3]",1.0,0.514430706823,0.0,91.0,11.0,3.0,,,,
102,,,1.0,p,2.0,2016_Mar_29_1317,b,ring,ilya5c-p,middle_ring,120.009708356,m,None,,,,,,"[1, 0, 1]",12,0.0,1.0,"[2, 3]",2.0,0.514415614217,7.0,92.0,11.0,4.0,,,,
103,,,1.0,g,1.0,2016_Mar_29_1317,0,baseline,ilya5c-p,middle_ring,120.009708356,m,None,,,,,,"[1, 0, 1]",12,0.0,1.0,"[2, 3]",1.0,0.539426782748,0.0,93.0,11.0,5.0,,,,
104,,,1.0,g,1.0,2016_Mar_29_1317,b,ring,ilya5c-p,middle_ring,120.009708356,m,None,,,,,,"[1, 0, 1]",12,0.0,1.0,"[2, 3]",1.0,0.6392384269829999,3.0,94.0,11.0,6.0,,,,
105,,,1.0,g,1.0,2016_Mar_29_1317,b,ring,ilya5c-p,middle_ring,120.009708356,m,None,,,,,,"[1, 0, 1]",12,0.0,1.0,"[2, 3]",1.0,0.72250162999,3.0,95.0,11.0,7.0,,,,
106,,,1.0,p,2.0,2016_Mar_29_1317,i,index,ilya5c-p,middle_ring,120.009708356,m,None,,,,,,"[1, 0, 1]",12,0.0,1.0,"[2, 3]",2.0,0.839436743872,5.0,96.0,12.0,0.0,,,,
107,,,1.0,p,2.0,2016_Mar_29_1317,i,index,ilya5c-p,middle_ring,120.009708356,m,None,,,,,,"[1, 0, 1]",12,0.0,1.0,"[2, 3]",2.0,0.6394382531270001,5.0,97.0,12.0,1.0,,,,
108,,,1.0,p,2.0,2016_Mar_29_1317,0,baseline,ilya5c-p,middle_ring,120.009708356,m,None,,,,,,"[1, 0, 1]",12,0.0,1.0,"[2, 3]",2.0,0.514400219746,4.0,98.0,12.0,2.0,,,,
109,,,1.0,g,1.0,2016_Mar_29_1317,0,baseline,ilya5c-p,middle_ring,120.009708356,m,None,,,,,,"[1, 0, 1]",12,0.0,1.0,"[2, 3]",1.0,0.6644409698179999,0.0,99.0,12.0,3.0,,,,
110,,,1.0,p,2.0,2016_Mar_29_1317,0,baseline,ilya5c-p,middle_ring,120.009708356,m,None,,,,,,"[1, 0, 1]",12,0.0,1.0,"[2, 3]",2.0,0.589495906866,4.0,100.0,12.0,4.0,,,,
111,,,1.0,g,1.0,2016_Mar_29_1317,i,index,ilya5c-p,middle_ring,120.009708356,m,None,,,,,,"[1, 0, 1]",12,0.0,1.0,"[2, 3]",1.0,0.714149380595,1.0,101.0,12.0,5.0,,,,
112,,,1.0,g,1.0,2016_Mar_29_1317,b,ring,ilya5c-p,middle_ring,120.009708356,m,None,,,,,,"[1, 0, 1]",12,0.0,1.0,"[2, 3]",1.0,0.41442406605099996,3.0,102.0,12.0,6.0,,,,
113,,,1.0,p,2.0,2016_Mar_29_1317,b,ring,ilya5c-p,middle_ring,120.009708356,m,None,,,,,,"[1, 0, 1]",12,0.0,1.0,"[2, 3]",2.0,0.564414406804,7.0,103.0,12.0,7.0,,,,
114,,,1.0,g,1.0,2016_Mar_29_1317,m,middle,ilya5c-p,middle_ring,120.009708356,m,None,,,,,,"[1, 0, 1]",12,0.0,1.0,"[2, 3]",1.0,0.33942829197400004,2.0,104.0,13.0,0.0,,,,
115,,,1.0,p,2.0,2016_Mar_29_1317,m,middle,ilya5c-p,middle_ring,120.009708356,m,None,,,,,,"[1, 0, 1]",12,0.0,1.0,"[2, 3]",2.0,0.539414104945,6.0,105.0,13.0,1.0,,,,
116,,,1.0,g,1.0,2016_Mar_29_1317,m,middle,ilya5c-p,middle_ring,120.009708356,m,None,,,,,,"[1, 0, 1]",12,0.0,1.0,"[2, 3]",1.0,0.414417727179,2.0,106.0,13.0,2.0,,,,
117,,,1.0,p,2.0,2016_Mar_29_1317,b,ring,ilya5c-p,middle_ring,120.009708356,m,None,,,,,,"[1, 0, 1]",12,0.0,1.0,"[2, 3]",2.0,0.46440746419600004,7.0,107.0,13.0,3.0,,,,
118,,,1.0,g,1.0,2016_Mar_29_1317,b,ring,ilya5c-p,middle_ring,120.009708356,m,None,,,,,,"[1, 0, 1]",12,0.0,1.0,"[2, 3]",1.0,0.389415916053,3.0,108.0,13.0,4.0,,,,
119,,,1.0,p,2.0,2016_Mar_29_1317,m,middle,ilya5c-p,middle_ring,120.009708356,m,None,,,,,,"[1, 0, 1]",12,0.0,1.0,"[2, 3]",2.0,0.539446403125,6.0,109.0,13.0,5.0,,,,
120,,,1.0,g,1.0,2016_Mar_29_1317,i,index,ilya5c-p,middle_ring,120.009708356,m,None,,,,,,"[1, 0, 1]",12,0.0,1.0,"[2, 3]",1.0,0.764433423491,1.0,110.0,13.0,6.0,,,,
121,,,1.0,p,2.0,2016_Mar_29_1317,i,index,ilya5c-p,middle_ring,120.009708356,m,None,,,,,,"[1, 0, 1]",12,0.0,1.0,"[2, 3]",2.0,0.6393404530219999,5.0,111.0,13.0,7.0,,,,
122,,,1.0,p,2.0,2016_Mar_29_1317,i,index,ilya5c-p,middle_ring,120.009708356,m,None,,,,,,"[1, 0, 1]",12,0.0,1.0,"[2, 3]",2.0,0.614446101271,5.0,112.0,14.0,0.0,,,,
123,,,1.0,p,2.0,2016_Mar_29_1317,b,ring,ilya5c-p,middle_ring,120.009708356,m,None,,,,,,"[1, 0, 1]",12,0.0,1.0,"[2, 3]",2.0,0.539427084584,7.0,113.0,14.0,1.0,,,,
124,,,1.0,p,2.0,2016_Mar_29_1317,m,middle,ilya5c-p,middle_ring,120.009708356,m,None,,,,,,"[1, 0, 1]",12,0.0,1.0,"[2, 3]",2.0,0.564473871663,6.0,114.0,14.0,2.0,,,,
125,,,1.0,p,2.0,2016_Mar_29_1317,0,baseline,ilya5c-p,middle_ring,120.009708356,m,None,,,,,,"[1, 0, 1]",12,0.0,1.0,"[2, 3]",2.0,0.41442255681400003,4.0,115.0,14.0,3.0,,,,
126,,,1.0,g,1.0,2016_Mar_29_1317,0,baseline,ilya5c-p,middle_ring,120.009708356,m,None,,,,,,"[1, 0, 1]",12,0.0,1.0,"[2, 3]",1.0,0.764421651225,0.0,116.0,14.0,4.0,,,,
127,,,1.0,g,1.0,2016_Mar_29_1317,m,middle,ilya5c-p,middle_ring,120.009708356,m,None,,,,,,"[1, 0, 1]",12,0.0,1.0,"[2, 3]",1.0,0.364307249283,2.0,117.0,14.0,5.0,,,,
128,,,1.0,g,1.0,2016_Mar_29_1317,i,index,ilya5c-p,middle_ring,120.009708356,m,None,,,,,,"[1, 0, 1]",12,0.0,1.0,"[2, 3]",1.0,0.364402634555,1.0,118.0,14.0,6.0,,,,
129,,,1.0,p,2.0,2016_Mar_29_1317,m,middle,ilya5c-p,middle_ring,120.009708356,m,None,,,,,,"[1, 0, 1]",12,0.0,1.0,"[2, 3]",2.0,0.664442177219,6.0,119.0,14.0,7.0,,,,
0,,,,,,2016_Mar_29_1329,,,ilya5c-p,,120.003187667,m,,,,,space,140.507216682,,13,,,,,,,,,,,,,
1,,,1.0,p,2.0,2016_Mar_29_1329,m,middle,ilya5c-p,middle_ring,120.003187667,m,,,,,,,"[1, 0, 1]",13,1.0,0.0,"[2, 3]",2.0,0.797543889288,,,,,6.0,0.0,0.0,0.0
2,,,1.0,g,1.0,2016_Mar_29_1329,b,ring,ilya5c-p,middle_ring,120.003187667,m,,,,,,,"[1, 0, 1]",13,1.0,0.0,"[2, 3]",1.0,0.589660114461,,,,,3.0,1.0,0.0,1.0
3,,,1.0,g,1.0,2016_Mar_29_1329,m,middle,ilya5c-p,middle_ring,120.003187667,m,,,,,,,"[1, 0, 1]",13,1.0,0.0,"[2, 3]",1.0,0.514672188552,,,,,2.0,2.0,0.0,2.0
4,,,1.0,p,2.0,2016_Mar_29_1329,0,baseline,ilya5c-p,middle_ring,120.003187667,m,,,,,,,"[1, 0, 1]",13,1.0,0.0,"[2, 3]",2.0,0.36464109775,,,,,4.0,3.0,0.0,3.0
5,,,1.0,g,1.0,2016_Mar_29_1329,i,index,ilya5c-p,middle_ring,120.003187667,m,,,,,,,"[1, 0, 1]",13,1.0,0.0,"[2, 3]",1.0,0.539668868148,,,,,1.0,4.0,0.0,4.0
6,,,1.0,g,1.0,2016_Mar_29_1329,0,baseline,ilya5c-p,middle_ring,120.003187667,m,,,,,,,"[1, 0, 1]",13,1.0,0.0,"[2, 3]",1.0,0.464648040358,,,,,0.0,5.0,0.0,5.0
7,,,1.0,p,2.0,2016_Mar_29_1329,b,ring,ilya5c-p,middle_ring,120.003187667,m,,,,,,,"[1, 0, 1]",13,1.0,0.0,"[2, 3]",2.0,0.36456171065,,,,,7.0,6.0,0.0,6.0
8,,,1.0,p,2.0,2016_Mar_29_1329,i,index,ilya5c-p,middle_ring,120.003187667,m,,,,,,,"[1, 0, 1]",13,1.0,0.0,"[2, 3]",2.0,0.564679433007,,,,,5.0,7.0,0.0,7.0
9,,,,,,2016_Mar_29_1329,,,ilya5c-p,,120.003187667,m,,,space,11.333822836900001,,,,13,,,,,,,,,,,,,
10,,,1.0,p,2.0,2016_Mar_29_1329,m,middle,ilya5c-p,middle_ring,120.003187667,m,space,5.1337114535,,,,,"[1, 0, 1]",13,0.0,1.0,"[2, 3]",2.0,0.492760136197,6.0,0.0,0.0,0.0,,,,
11,,,1.0,g,1.0,2016_Mar_29_1329,i,index,ilya5c-p,middle_ring,120.003187667,m,None,,,,,,"[1, 0, 1]",13,0.0,0.0,"[2, 3]",1.0,0.588897635896,1.0,1.0,0.0,1.0,,,,
12,,,1.0,p,2.0,2016_Mar_29_1329,i,index,ilya5c-p,middle_ring,120.003187667,m,None,,,,,,"[1, 0, 1]",13,0.0,1.0,"[2, 3]",2.0,0.38937909010300004,5.0,2.0,0.0,2.0,,,,
13,,,1.0,p,2.0,2016_Mar_29_1329,0,baseline,ilya5c-p,middle_ring,120.003187667,m,None,,,,,,"[1, 0, 1]",13,0.0,1.0,"[2, 3]",2.0,0.33942044383500003,4.0,3.0,0.0,3.0,,,,
14,,,1.0,p,2.0,2016_Mar_29_1329,b,ring,ilya5c-p,middle_ring,120.003187667,m,None,,,,,,"[1, 0, 1]",13,0.0,1.0,"[2, 3]",2.0,0.339410784565,7.0,4.0,0.0,4.0,,,,
15,,,1.0,p,2.0,2016_Mar_29_1329,0,baseline,ilya5c-p,middle_ring,120.003187667,m,None,,,,,,"[1, 0, 1]",13,0.0,1.0,"[2, 3]",2.0,0.364404143821,4.0,5.0,0.0,5.0,,,,
16,,,1.0,g,1.0,2016_Mar_29_1329,0,baseline,ilya5c-p,middle_ring,120.003187667,m,None,,,,,,"[1, 0, 1]",13,0.0,1.0,"[2, 3]",1.0,0.439398408632,0.0,6.0,0.0,6.0,,,,
17,,,0.0,g,1.0,2016_Mar_29_1329,b,ring,ilya5c-p,middle_ring,120.003187667,m,None,,,,,,"[1, 0, 1]",13,0.0,1.0,"[2, 3]",2.0,0.41440474751100004,3.0,7.0,0.0,7.0,,,,
18,,,1.0,g,1.0,2016_Mar_29_1329,i,index,ilya5c-p,middle_ring,120.003187667,m,None,,,,,,"[1, 0, 1]",13,0.0,1.0,"[2, 3]",1.0,0.38923450288500006,1.0,8.0,1.0,0.0,,,,
19,,,1.0,p,2.0,2016_Mar_29_1329,i,index,ilya5c-p,middle_ring,120.003187667,m,None,,,,,,"[1, 0, 1]",13,0.0,1.0,"[2, 3]",2.0,0.339440969777,5.0,9.0,1.0,1.0,,,,
20,,,1.0,g,1.0,2016_Mar_29_1329,m,middle,ilya5c-p,middle_ring,120.003187667,m,None,,,,,,"[1, 0, 1]",13,0.0,1.0,"[2, 3]",1.0,0.46443674387199996,2.0,10.0,1.0,2.0,,,,
21,,,1.0,g,1.0,2016_Mar_29_1329,b,ring,ilya5c-p,middle_ring,120.003187667,m,None,,,,,,"[1, 0, 1]",13,0.0,1.0,"[2, 3]",1.0,0.43938784379600004,3.0,11.0,1.0,3.0,,,,
22,,,1.0,g,1.0,2016_Mar_29_1329,i,index,ilya5c-p,middle_ring,120.003187667,m,None,,,,,,"[1, 0, 1]",13,0.0,1.0,"[2, 3]",1.0,0.38941742531999995,1.0,12.0,1.0,4.0,,,,
23,,,1.0,g,1.0,2016_Mar_29_1329,i,index,ilya5c-p,middle_ring,120.003187667,m,None,,,,,,"[1, 0, 1]",13,0.0,1.0,"[2, 3]",1.0,0.48939810678499995,1.0,13.0,1.0,5.0,,,,
24,,,1.0,p,2.0,2016_Mar_29_1329,0,baseline,ilya5c-p,middle_ring,120.003187667,m,None,,,,,,"[1, 0, 1]",13,0.0,1.0,"[2, 3]",2.0,0.514418934586,4.0,14.0,1.0,6.0,,,,
25,,,1.0,p,2.0,2016_Mar_29_1329,b,ring,ilya5c-p,middle_ring,120.003187667,m,None,,,,,,"[1, 0, 1]",13,0.0,1.0,"[2, 3]",2.0,0.36442678276,7.0,15.0,1.0,7.0,,,,
26,,,1.0,g,1.0,2016_Mar_29_1329,0,baseline,ilya5c-p,middle_ring,120.003187667,m,None,,,,,,"[1, 0, 1]",13,0.0,1.0,"[2, 3]",1.0,0.539361884524,0.0,16.0,2.0,0.0,,,,
27,,,1.0,g,1.0,2016_Mar_29_1329,0,baseline,ilya5c-p,middle_ring,120.003187667,m,None,,,,,,"[1, 0, 1]",13,0.0,1.0,"[2, 3]",1.0,0.43940384196800003,0.0,17.0,2.0,1.0,,,,
28,,,1.0,g,1.0,2016_Mar_29_1329,m,middle,ilya5c-p,middle_ring,120.003187667,m,None,,,,,,"[1, 0, 1]",13,0.0,1.0,"[2, 3]",1.0,0.389334114121,2.0,18.0,2.0,2.0,,,,
29,,,0.0,p,2.0,2016_Mar_29_1329,i,index,ilya5c-p,middle_ring,120.003187667,m,None,,,,,,"[1, 0, 1]",13,0.0,1.0,"[2, 3]",1.0,0.43941289753799995,5.0,19.0,2.0,3.0,,,,
30,,,1.0,g,1.0,2016_Mar_29_1329,b,ring,ilya5c-p,middle_ring,120.003187667,m,None,,,,,,"[1, 0, 1]",13,0.0,1.0,"[2, 3]",1.0,0.464406860495,3.0,20.0,2.0,4.0,,,,
31,,,1.0,g,1.0,2016_Mar_29_1329,i,index,ilya5c-p,middle_ring,120.003187667,m,None,,,,,,"[1, 0, 1]",13,0.0,1.0,"[2, 3]",1.0,0.489420443829,1.0,21.0,2.0,5.0,,,,
32,,,1.0,g,1.0,2016_Mar_29_1329,i,index,ilya5c-p,middle_ring,120.003187667,m,None,,,,,,"[1, 0, 1]",13,0.0,1.0,"[2, 3]",1.0,0.41438391973300004,1.0,22.0,2.0,6.0,,,,
33,,,1.0,g,1.0,2016_Mar_29_1329,b,ring,ilya5c-p,middle_ring,120.003187667,m,None,,,,,,"[1, 0, 1]",13,0.0,1.0,"[2, 3]",1.0,0.38941501048699995,3.0,23.0,2.0,7.0,,,,
34,,,1.0,p,2.0,2016_Mar_29_1329,i,index,ilya5c-p,middle_ring,120.003187667,m,None,,,,,,"[1, 0, 1]",13,0.0,1.0,"[2, 3]",2.0,0.564400521599,5.0,24.0,3.0,0.0,,,,
35,,,1.0,p,2.0,2016_Mar_29_1329,i,index,ilya5c-p,middle_ring,120.003187667,m,None,,,,,,"[1, 0, 1]",13,0.0,1.0,"[2, 3]",2.0,0.5644219531069999,5.0,25.0,3.0,1.0,,,,
36,,,1.0,g,1.0,2016_Mar_29_1329,0,baseline,ilya5c-p,middle_ring,120.003187667,m,None,,,,,,"[1, 0, 1]",13,0.0,1.0,"[2, 3]",1.0,0.489399314186,0.0,26.0,3.0,2.0,,,,
37,,,1.0,g,1.0,2016_Mar_29_1329,i,index,ilya5c-p,middle_ring,120.003187667,m,None,,,,,,"[1, 0, 1]",13,0.0,1.0,"[2, 3]",1.0,0.439438856816,1.0,27.0,3.0,3.0,,,,
38,,,1.0,p,2.0,2016_Mar_29_1329,b,ring,ilya5c-p,middle_ring,120.003187667,m,None,,,,,,"[1, 0, 1]",13,0.0,1.0,"[2, 3]",2.0,0.46444308274400004,7.0,28.0,3.0,4.0,,,,
39,,,1.0,p,2.0,2016_Mar_29_1329,b,ring,ilya5c-p,middle_ring,120.003187667,m,None,,,,,,"[1, 0, 1]",13,0.0,1.0,"[2, 3]",2.0,0.439411388271,7.0,29.0,3.0,5.0,,,,
40,,,1.0,g,1.0,2016_Mar_29_1329,m,middle,ilya5c-p,middle_ring,120.003187667,m,None,,,,,,"[1, 0, 1]",13,0.0,1.0,"[2, 3]",1.0,0.389400219775,2.0,30.0,3.0,6.0,,,,
41,,,1.0,p,2.0,2016_Mar_29_1329,b,ring,ilya5c-p,middle_ring,120.003187667,m,None,,,,,,"[1, 0, 1]",13,0.0,1.0,"[2, 3]",2.0,0.389317512277,7.0,31.0,3.0,7.0,,,,
42,,,1.0,g,1.0,2016_Mar_29_1329,m,middle,ilya5c-p,middle_ring,120.003187667,m,None,,,,,,"[1, 0, 1]",13,0.0,1.0,"[2, 3]",1.0,0.539436140183,2.0,32.0,4.0,0.0,,,,
43,,,1.0,p,2.0,2016_Mar_29_1329,i,index,ilya5c-p,middle_ring,120.003187667,m,None,,,,,,"[1, 0, 1]",13,0.0,1.0,"[2, 3]",2.0,0.414400219769,5.0,33.0,4.0,1.0,,,,
44,,,1.0,p,2.0,2016_Mar_29_1329,0,baseline,ilya5c-p,middle_ring,120.003187667,m,None,,,,,,"[1, 0, 1]",13,0.0,1.0,"[2, 3]",2.0,0.314398408661,4.0,34.0,4.0,2.0,,,,
45,,,1.0,g,1.0,2016_Mar_29_1329,0,baseline,ilya5c-p,middle_ring,120.003187667,m,None,,,,,,"[1, 0, 1]",13,0.0,1.0,"[2, 3]",1.0,0.38933139745300005,0.0,35.0,4.0,3.0,,,,
46,,,1.0,p,2.0,2016_Mar_29_1329,b,ring,ilya5c-p,middle_ring,120.003187667,m,None,,,,,,"[1, 0, 1]",13,0.0,1.0,"[2, 3]",2.0,0.289411991978,7.0,36.0,4.0,4.0,,,,
47,,,1.0,p,2.0,2016_Mar_29_1329,i,index,ilya5c-p,middle_ring,120.003187667,m,None,,,,,,"[1, 0, 1]",13,0.0,1.0,"[2, 3]",2.0,0.314416821607,5.0,37.0,4.0,5.0,,,,
48,,,1.0,g,1.0,2016_Mar_29_1329,m,middle,ilya5c-p,middle_ring,120.003187667,m,None,,,,,,"[1, 0, 1]",13,0.0,1.0,"[2, 3]",1.0,0.5143715438,2.0,38.0,4.0,6.0,,,,
49,,,1.0,g,1.0,2016_Mar_29_1329,b,ring,ilya5c-p,middle_ring,120.003187667,m,None,,,,,,"[1, 0, 1]",13,0.0,1.0,"[2, 3]",1.0,0.464402936426,3.0,39.0,4.0,7.0,,,,
50,,,1.0,g,1.0,2016_Mar_29_1329,m,middle,ilya5c-p,middle_ring,120.003187667,m,None,,,,,,"[1, 0, 1]",13,0.0,1.0,"[2, 3]",1.0,0.41440867160899997,2.0,40.0,5.0,0.0,,,,
51,,,1.0,g,1.0,2016_Mar_29_1329,i,index,ilya5c-p,middle_ring,120.003187667,m,None,,,,,,"[1, 0, 1]",13,0.0,0.0,"[2, 3]",1.0,0.46444096980599997,1.0,41.0,5.0,1.0,,,,
52,,,1.0,p,2.0,2016_Mar_29_1329,i,index,ilya5c-p,middle_ring,120.003187667,m,None,,,,,,"[1, 0, 1]",13,0.0,1.0,"[2, 3]",2.0,0.339411991995,5.0,42.0,5.0,2.0,,,,
53,,,1.0,p,2.0,2016_Mar_29_1329,i,index,ilya5c-p,middle_ring,120.003187667,m,None,,,,,,"[1, 0, 1]",13,0.0,1.0,"[2, 3]",2.0,0.314386032694,5.0,43.0,5.0,3.0,,,,
54,,,1.0,g,1.0,2016_Mar_29_1329,i,index,ilya5c-p,middle_ring,120.003187667,m,None,,,,,,"[1, 0, 1]",13,0.0,1.0,"[2, 3]",1.0,0.639401427148,1.0,44.0,5.0,4.0,,,,
55,,,1.0,g,1.0,2016_Mar_29_1329,m,middle,ilya5c-p,middle_ring,120.003187667,m,None,,,,,,"[1, 0, 1]",13,0.0,1.0,"[2, 3]",1.0,0.564423764209,2.0,45.0,5.0,5.0,,,,
56,,,1.0,p,2.0,2016_Mar_29_1329,0,baseline,ilya5c-p,middle_ring,120.003187667,m,None,,,,,,"[1, 0, 1]",13,0.0,1.0,"[2, 3]",2.0,0.43942255680799996,4.0,46.0,5.0,6.0,,,,
57,,,1.0,g,1.0,2016_Mar_29_1329,0,baseline,ilya5c-p,middle_ring,120.003187667,m,None,,,,,,"[1, 0, 1]",13,0.0,1.0,"[2, 3]",1.0,0.389405351217,0.0,47.0,5.0,7.0,,,,
58,,,1.0,p,2.0,2016_Mar_29_1329,0,baseline,ilya5c-p,middle_ring,120.003187667,m,None,,,,,,"[1, 0, 1]",13,0.0,1.0,"[2, 3]",2.0,0.364356451171,4.0,48.0,6.0,0.0,,,,
59,,,1.0,g,1.0,2016_Mar_29_1329,i,index,ilya5c-p,middle_ring,120.003187667,m,None,,,,,,"[1, 0, 1]",13,0.0,1.0,"[2, 3]",1.0,0.464412595696,1.0,49.0,6.0,1.0,,,,
60,,,1.0,p,2.0,2016_Mar_29_1329,m,middle,ilya5c-p,middle_ring,120.003187667,m,None,,,,,,"[1, 0, 1]",13,0.0,1.0,"[2, 3]",2.0,0.48940323828500004,6.0,50.0,6.0,2.0,,,,
61,,,1.0,p,2.0,2016_Mar_29_1329,0,baseline,ilya5c-p,middle_ring,120.003187667,m,None,,,,,,"[1, 0, 1]",13,0.0,1.0,"[2, 3]",2.0,0.414379090097,4.0,51.0,6.0,3.0,,,,
62,,,1.0,p,2.0,2016_Mar_29_1329,i,index,ilya5c-p,middle_ring,120.003187667,m,None,,,,,,"[1, 0, 1]",13,0.0,1.0,"[2, 3]",2.0,0.41444006422300006,5.0,52.0,6.0,4.0,,,,
63,,,1.0,g,1.0,2016_Mar_29_1329,m,middle,ilya5c-p,middle_ring,120.003187667,m,None,,,,,,"[1, 0, 1]",13,0.0,1.0,"[2, 3]",1.0,0.389457873532,2.0,53.0,6.0,5.0,,,,
64,,,1.0,p,2.0,2016_Mar_29_1329,m,middle,ilya5c-p,middle_ring,120.003187667,m,None,,,,,,"[1, 0, 1]",13,0.0,1.0,"[2, 3]",2.0,0.314368525285,6.0,54.0,6.0,6.0,,,,
65,,,1.0,g,1.0,2016_Mar_29_1329,i,index,ilya5c-p,middle_ring,120.003187667,m,None,,,,,,"[1, 0, 1]",13,0.0,1.0,"[2, 3]",1.0,0.589410180864,1.0,55.0,6.0,7.0,,,,
66,,,1.0,p,2.0,2016_Mar_29_1329,m,middle,ilya5c-p,middle_ring,120.003187667,m,None,,,,,,"[1, 0, 1]",13,0.0,1.0,"[2, 3]",2.0,0.38938452343900004,6.0,56.0,7.0,0.0,,,,
67,,,1.0,g,1.0,2016_Mar_29_1329,b,ring,ilya5c-p,middle_ring,120.003187667,m,None,,,,,,"[1, 0, 1]",13,0.0,1.0,"[2, 3]",1.0,0.564414104939,3.0,57.0,7.0,1.0,,,,
68,,,1.0,g,1.0,2016_Mar_29_1329,i,index,ilya5c-p,middle_ring,120.003187667,m,None,,,,,,"[1, 0, 1]",13,0.0,1.0,"[2, 3]",1.0,0.414452742026,1.0,58.0,7.0,2.0,,,,
69,,,1.0,p,2.0,2016_Mar_29_1329,0,baseline,ilya5c-p,middle_ring,120.003187667,m,None,,,,,,"[1, 0, 1]",13,0.0,1.0,"[2, 3]",2.0,0.464413501233,4.0,59.0,7.0,3.0,,,,
70,,,1.0,g,1.0,2016_Mar_29_1329,0,baseline,ilya5c-p,middle_ring,120.003187667,m,None,,,,,,"[1, 0, 1]",13,0.0,1.0,"[2, 3]",1.0,0.389434932729,0.0,60.0,7.0,4.0,,,,
71,,,1.0,p,2.0,2016_Mar_29_1329,m,middle,ilya5c-p,middle_ring,120.003187667,m,None,,,,,,"[1, 0, 1]",13,0.0,1.0,"[2, 3]",2.0,0.439419236439,6.0,61.0,7.0,5.0,,,,
72,,,1.0,p,2.0,2016_Mar_29_1329,m,middle,ilya5c-p,middle_ring,120.003187667,m,None,,,,,,"[1, 0, 1]",13,0.0,1.0,"[2, 3]",2.0,0.289429499416,6.0,62.0,7.0,6.0,,,,
73,,,1.0,g,1.0,2016_Mar_29_1329,b,ring,ilya5c-p,middle_ring,120.003187667,m,None,,,,,,"[1, 0, 1]",13,0.0,1.0,"[2, 3]",1.0,0.33941621793000004,3.0,63.0,7.0,7.0,,,,
74,,,1.0,p,2.0,2016_Mar_29_1329,0,baseline,ilya5c-p,middle_ring,120.003187667,m,None,,,,,,"[1, 0, 1]",13,0.0,1.0,"[2, 3]",2.0,0.514405351246,4.0,64.0,8.0,0.0,,,,
75,,,1.0,g,1.0,2016_Mar_29_1329,0,baseline,ilya5c-p,middle_ring,120.003187667,m,None,,,,,,"[1, 0, 1]",13,0.0,1.0,"[2, 3]",1.0,0.539435536424,0.0,65.0,8.0,1.0,,,,
76,,,1.0,p,2.0,2016_Mar_29_1329,m,middle,ilya5c-p,middle_ring,120.003187667,m,None,,,,,,"[1, 0, 1]",13,0.0,1.0,"[2, 3]",2.0,0.389417123455,6.0,66.0,8.0,2.0,,,,
77,,,1.0,p,2.0,2016_Mar_29_1329,m,middle,ilya5c-p,middle_ring,120.003187667,m,None,,,,,,"[1, 0, 1]",13,0.0,1.0,"[2, 3]",2.0,0.314397503067,6.0,67.0,8.0,3.0,,,,
78,,,1.0,p,2.0,2016_Mar_29_1329,0,baseline,ilya5c-p,middle_ring,120.003187667,m,None,,,,,,"[1, 0, 1]",13,0.0,1.0,"[2, 3]",2.0,0.364407162354,4.0,68.0,8.0,4.0,,,,
79,,,1.0,p,2.0,2016_Mar_29_1329,0,baseline,ilya5c-p,middle_ring,120.003187667,m,None,,,,,,"[1, 0, 1]",13,0.0,1.0,"[2, 3]",2.0,0.414411690113,4.0,69.0,8.0,5.0,,,,
80,,,1.0,g,1.0,2016_Mar_29_1329,0,baseline,ilya5c-p,middle_ring,120.003187667,m,None,,,,,,"[1, 0, 1]",13,0.0,1.0,"[2, 3]",1.0,0.539403841974,0.0,70.0,8.0,6.0,,,,
81,,,1.0,p,2.0,2016_Mar_29_1329,0,baseline,ilya5c-p,middle_ring,120.003187667,m,None,,,,,,"[1, 0, 1]",13,0.0,1.0,"[2, 3]",2.0,0.41428279926,4.0,71.0,8.0,7.0,,,,
82,,,1.0,g,1.0,2016_Mar_29_1329,0,baseline,ilya5c-p,middle_ring,120.003187667,m,None,,,,,,"[1, 0, 1]",13,0.0,1.0,"[2, 3]",1.0,0.489404143821,0.0,72.0,9.0,0.0,,,,
83,,,1.0,g,1.0,2016_Mar_29_1329,b,ring,ilya5c-p,middle_ring,120.003187667,m,None,,,,,,"[1, 0, 1]",13,0.0,1.0,"[2, 3]",1.0,0.43944610125399997,3.0,73.0,9.0,1.0,,,,
84,,,1.0,p,2.0,2016_Mar_29_1329,0,baseline,ilya5c-p,middle_ring,120.003187667,m,None,,,,,,"[1, 0, 1]",13,0.0,1.0,"[2, 3]",2.0,0.414451836461,4.0,74.0,9.0,2.0,,,,
85,,,1.0,g,1.0,2016_Mar_29_1329,m,middle,ilya5c-p,middle_ring,120.003187667,m,None,,,,,,"[1, 0, 1]",13,0.0,1.0,"[2, 3]",1.0,0.48937063823999993,2.0,75.0,9.0,3.0,,,,
86,,,1.0,p,2.0,2016_Mar_29_1329,b,ring,ilya5c-p,middle_ring,120.003187667,m,None,,,,,,"[1, 0, 1]",13,0.0,1.0,"[2, 3]",2.0,0.314431914242,7.0,76.0,9.0,4.0,,,,
87,,,1.0,p,2.0,2016_Mar_29_1329,b,ring,ilya5c-p,middle_ring,120.003187667,m,None,,,,,,"[1, 0, 1]",13,0.0,1.0,"[2, 3]",2.0,-0.035613061746099996,7.0,77.0,9.0,5.0,,,,
88,,,1.0,g,1.0,2016_Mar_29_1329,b,ring,ilya5c-p,middle_ring,120.003187667,m,None,,,,,,"[1, 0, 1]",13,0.0,1.0,"[2, 3]",1.0,0.489394182715,3.0,78.0,9.0,6.0,,,,
89,,,1.0,p,2.0,2016_Mar_29_1329,i,index,ilya5c-p,middle_ring,120.003187667,m,None,,,,,,"[1, 0, 1]",13,0.0,1.0,"[2, 3]",2.0,0.514430103123,5.0,79.0,9.0,7.0,,,,
90,,,1.0,p,2.0,2016_Mar_29_1329,m,middle,ilya5c-p,middle_ring,120.003187667,m,None,,,,,,"[1, 0, 1]",13,0.0,1.0,"[2, 3]",2.0,0.41436731786,6.0,80.0,10.0,0.0,,,,
91,,,1.0,g,1.0,2016_Mar_29_1329,0,baseline,ilya5c-p,middle_ring,120.003187667,m,None,,,,,,"[1, 0, 1]",13,0.0,0.0,"[2, 3]",1.0,0.464416519766,0.0,81.0,10.0,1.0,,,,
92,,,1.0,g,1.0,2016_Mar_29_1329,0,baseline,ilya5c-p,middle_ring,120.003187667,m,None,,,,,,"[1, 0, 1]",13,0.0,1.0,"[2, 3]",1.0,0.339385730823,0.0,82.0,10.0,2.0,,,,
93,,,1.0,g,1.0,2016_Mar_29_1329,b,ring,ilya5c-p,middle_ring,120.003187667,m,None,,,,,,"[1, 0, 1]",13,0.0,1.0,"[2, 3]",1.0,0.51446451424,3.0,83.0,10.0,3.0,,,,
94,,,1.0,g,1.0,2016_Mar_29_1329,b,ring,ilya5c-p,middle_ring,120.003187667,m,None,,,,,,"[1, 0, 1]",13,0.0,1.0,"[2, 3]",1.0,0.489455156841,3.0,84.0,10.0,4.0,,,,
95,,,1.0,p,2.0,2016_Mar_29_1329,i,index,ilya5c-p,middle_ring,120.003187667,m,None,,,,,,"[1, 0, 1]",13,0.0,1.0,"[2, 3]",2.0,0.48941108642399994,5.0,85.0,10.0,5.0,,,,
96,,,1.0,g,1.0,2016_Mar_29_1329,b,ring,ilya5c-p,middle_ring,120.003187667,m,None,,,,,,"[1, 0, 1]",13,0.0,1.0,"[2, 3]",1.0,0.5143848252750001,3.0,86.0,10.0,6.0,,,,
97,,,1.0,p,2.0,2016_Mar_29_1329,m,middle,ilya5c-p,middle_ring,120.003187667,m,None,,,,,,"[1, 0, 1]",13,0.0,1.0,"[2, 3]",2.0,0.364404445686,6.0,87.0,10.0,7.0,,,,
98,,,1.0,g,1.0,2016_Mar_29_1329,m,middle,ilya5c-p,middle_ring,120.003187667,m,None,,,,,,"[1, 0, 1]",13,0.0,1.0,"[2, 3]",1.0,0.5143691289679999,2.0,88.0,11.0,0.0,,,,
99,,,1.0,g,1.0,2016_Mar_29_1329,b,ring,ilya5c-p,middle_ring,120.003187667,m,None,,,,,,"[1, 0, 1]",13,0.0,1.0,"[2, 3]",1.0,0.489392975285,3.0,89.0,11.0,1.0,,,,
100,,,1.0,p,2.0,2016_Mar_29_1329,b,ring,ilya5c-p,middle_ring,120.003187667,m,None,,,,,,"[1, 0, 1]",13,0.0,1.0,"[2, 3]",2.0,0.38940655861900003,7.0,90.0,11.0,2.0,,,,
101,,,1.0,p,2.0,2016_Mar_29_1329,m,middle,ilya5c-p,middle_ring,120.003187667,m,None,,,,,,"[1, 0, 1]",13,0.0,1.0,"[2, 3]",2.0,0.414410180876,6.0,91.0,11.0,3.0,,,,
102,,,1.0,p,2.0,2016_Mar_29_1329,i,index,ilya5c-p,middle_ring,120.003187667,m,None,,,,,,"[1, 0, 1]",13,0.0,1.0,"[2, 3]",2.0,0.38938542897600004,5.0,92.0,11.0,4.0,,,,
103,,,1.0,g,1.0,2016_Mar_29_1329,i,index,ilya5c-p,middle_ring,120.003187667,m,None,,,,,,"[1, 0, 1]",13,0.0,1.0,"[2, 3]",1.0,0.46439206972499997,1.0,93.0,11.0,5.0,,,,
104,,,1.0,g,1.0,2016_Mar_29_1329,m,middle,ilya5c-p,middle_ring,120.003187667,m,None,,,,,,"[1, 0, 1]",13,0.0,1.0,"[2, 3]",1.0,0.364390258617,2.0,94.0,11.0,6.0,,,,
105,,,1.0,p,2.0,2016_Mar_29_1329,b,ring,ilya5c-p,middle_ring,120.003187667,m,None,,,,,,"[1, 0, 1]",13,0.0,1.0,"[2, 3]",2.0,0.439392069731,7.0,95.0,11.0,7.0,,,,
106,,,1.0,p,2.0,2016_Mar_29_1329,m,middle,ilya5c-p,middle_ring,120.003187667,m,None,,,,,,"[1, 0, 1]",13,0.0,1.0,"[2, 3]",2.0,0.38937909010300004,6.0,96.0,12.0,0.0,,,,
107,,,1.0,g,1.0,2016_Mar_29_1329,i,index,ilya5c-p,middle_ring,120.003187667,m,None,,,,,,"[1, 0, 1]",13,0.0,1.0,"[2, 3]",1.0,0.46437426048,1.0,97.0,12.0,1.0,,,,
108,,,1.0,p,2.0,2016_Mar_29_1329,b,ring,ilya5c-p,middle_ring,120.003187667,m,None,,,,,,"[1, 0, 1]",13,0.0,1.0,"[2, 3]",2.0,0.589413199397,7.0,98.0,12.0,2.0,,,,
109,,,1.0,p,2.0,2016_Mar_29_1329,m,middle,ilya5c-p,middle_ring,120.003187667,m,None,,,,,,"[1, 0, 1]",13,0.0,1.0,"[2, 3]",2.0,0.38938452343900004,6.0,99.0,12.0,3.0,,,,
110,,,1.0,p,2.0,2016_Mar_29_1329,b,ring,ilya5c-p,middle_ring,120.003187667,m,None,,,,,,"[1, 0, 1]",13,0.0,1.0,"[2, 3]",2.0,0.38939508824600005,7.0,100.0,12.0,4.0,,,,
111,,,1.0,p,2.0,2016_Mar_29_1329,m,middle,ilya5c-p,middle_ring,120.003187667,m,None,,,,,,"[1, 0, 1]",13,0.0,1.0,"[2, 3]",2.0,0.43939991789899996,6.0,101.0,12.0,5.0,,,,
112,,,1.0,p,2.0,2016_Mar_29_1329,i,index,ilya5c-p,middle_ring,120.003187667,m,None,,,,,,"[1, 0, 1]",13,0.0,1.0,"[2, 3]",2.0,-0.260651396968,5.0,102.0,12.0,6.0,,,,
113,,,1.0,p,2.0,2016_Mar_29_1329,b,ring,ilya5c-p,middle_ring,120.003187667,m,None,,,,,,"[1, 0, 1]",13,0.0,1.0,"[2, 3]",2.0,0.397704776491,7.0,103.0,12.0,7.0,,,,
114,,,1.0,g,1.0,2016_Mar_29_1329,m,middle,ilya5c-p,middle_ring,120.003187667,m,None,,,,,,"[1, 0, 1]",13,0.0,1.0,"[2, 3]",1.0,0.564369732686,2.0,104.0,13.0,0.0,,,,
115,,,1.0,g,1.0,2016_Mar_29_1329,m,middle,ilya5c-p,middle_ring,120.003187667,m,None,,,,,,"[1, 0, 1]",13,0.0,1.0,"[2, 3]",1.0,0.539360073422,2.0,105.0,13.0,1.0,,,,
116,,,1.0,g,1.0,2016_Mar_29_1329,i,index,ilya5c-p,middle_ring,120.003187667,m,None,,,,,,"[1, 0, 1]",13,0.0,1.0,"[2, 3]",1.0,0.489394484551,1.0,106.0,13.0,2.0,,,,
117,,,1.0,g,1.0,2016_Mar_29_1329,m,middle,ilya5c-p,middle_ring,120.003187667,m,None,,,,,,"[1, 0, 1]",13,0.0,1.0,"[2, 3]",1.0,0.439399314198,2.0,107.0,13.0,3.0,,,,
118,,,1.0,g,1.0,2016_Mar_29_1329,b,ring,ilya5c-p,middle_ring,120.003187667,m,None,,,,,,"[1, 0, 1]",13,0.0,1.0,"[2, 3]",1.0,0.43938512712800004,3.0,108.0,13.0,4.0,,,,
119,,,1.0,g,1.0,2016_Mar_29_1329,b,ring,ilya5c-p,middle_ring,120.003187667,m,None,,,,,,"[1, 0, 1]",13,0.0,1.0,"[2, 3]",1.0,0.564412897538,3.0,109.0,13.0,5.0,,,,
120,,,1.0,p,2.0,2016_Mar_29_1329,i,index,ilya5c-p,middle_ring,120.003187667,m,None,,,,,,"[1, 0, 1]",13,0.0,1.0,"[2, 3]",2.0,0.3394207457,5.0,110.0,13.0,6.0,,,,
121,,,1.0,p,2.0,2016_Mar_29_1329,0,baseline,ilya5c-p,middle_ring,120.003187667,m,None,,,,,,"[1, 0, 1]",13,0.0,1.0,"[2, 3]",2.0,0.539424367916,4.0,111.0,13.0,7.0,,,,
122,,,1.0,p,2.0,2016_Mar_29_1329,0,baseline,ilya5c-p,middle_ring,120.003187667,m,None,,,,,,"[1, 0, 1]",13,0.0,1.0,"[2, 3]",2.0,0.3394156142,4.0,112.0,14.0,0.0,,,,
123,,,1.0,g,1.0,2016_Mar_29_1329,0,baseline,ilya5c-p,middle_ring,120.003187667,m,None,,,,,,"[1, 0, 1]",13,0.0,1.0,"[2, 3]",1.0,0.289426179018,0.0,113.0,14.0,1.0,,,,
124,,,1.0,g,1.0,2016_Mar_29_1329,0,baseline,ilya5c-p,middle_ring,120.003187667,m,None,,,,,,"[1, 0, 1]",13,0.0,1.0,"[2, 3]",1.0,0.439432819779,0.0,114.0,14.0,2.0,,,,
125,,,1.0,p,2.0,2016_Mar_29_1329,m,middle,ilya5c-p,middle_ring,120.003187667,m,None,,,,,,"[1, 0, 1]",13,0.0,1.0,"[2, 3]",2.0,0.414423764215,6.0,115.0,14.0,3.0,,,,
126,,,1.0,g,1.0,2016_Mar_29_1329,0,baseline,ilya5c-p,middle_ring,120.003187667,m,None,,,,,,"[1, 0, 1]",13,0.0,1.0,"[2, 3]",1.0,0.49775186544600003,0.0,116.0,14.0,4.0,,,,
127,,,1.0,g,1.0,2016_Mar_29_1329,m,middle,ilya5c-p,middle_ring,120.003187667,m,None,,,,,,"[1, 0, 1]",13,0.0,1.0,"[2, 3]",1.0,0.414420745712,2.0,117.0,14.0,5.0,,,,
128,,,1.0,p,2.0,2016_Mar_29_1329,b,ring,ilya5c-p,middle_ring,120.003187667,m,None,,,,,,"[1, 0, 1]",13,0.0,1.0,"[2, 3]",2.0,0.389405351246,7.0,118.0,14.0,6.0,,,,
129,,,1.0,p,2.0,2016_Mar_29_1329,b,ring,ilya5c-p,middle_ring,120.003187667,m,None,,,,,,"[1, 0, 1]",13,0.0,1.0,"[2, 3]",2.0,0.33940323826200003,7.0,119.0,14.0,7.0,,,,
0,,,,,,2016_Mar_29_1343,,,ilya5c-p,,120.079741915,m,,,,,space,115.116831277,,13,,,,,,,,,,,,,
1,,,0.0,g,1.0,2016_Mar_29_1343,b,ring,ilya5c-p,middle_ring,120.079741915,m,,,,,,,"[1, 0, 1]",13,1.0,0.0,"[2, 3]",2.0,0.7147666682699999,,,,,3.0,0.0,0.0,0.0
2,,,1.0,p,2.0,2016_Mar_29_1343,0,baseline,ilya5c-p,middle_ring,120.079741915,m,,,,,,,"[1, 0, 1]",13,1.0,0.0,"[2, 3]",2.0,0.7646504552079999,,,,,4.0,1.0,0.0,1.0
3,,,1.0,p,2.0,2016_Mar_29_1343,b,ring,ilya5c-p,middle_ring,120.079741915,m,,,,,,,"[1, 0, 1]",13,1.0,0.0,"[2, 3]",2.0,0.489697846,,,,,7.0,2.0,0.0,2.0
4,,,0.0,g,1.0,2016_Mar_29_1343,m,middle,ilya5c-p,middle_ring,120.079741915,m,,,,,,,"[1, 0, 1]",13,1.0,0.0,"[2, 3]",2.0,0.514611214426,,,,,2.0,3.0,0.0,3.0
5,,,1.0,g,1.0,2016_Mar_29_1343,i,index,ilya5c-p,middle_ring,120.079741915,m,,,,,,,"[1, 0, 1]",13,1.0,0.0,"[2, 3]",1.0,0.414661020009,,,,,1.0,4.0,0.0,4.0
6,,,1.0,p,2.0,2016_Mar_29_1343,i,index,ilya5c-p,middle_ring,120.079741915,m,,,,,,,"[1, 0, 1]",13,1.0,0.0,"[2, 3]",2.0,0.43965981263099996,,,,,5.0,5.0,0.0,5.0
7,,,0.0,g,1.0,2016_Mar_29_1343,0,baseline,ilya5c-p,middle_ring,120.079741915,m,,,,,,,"[1, 0, 1]",13,1.0,0.0,"[2, 3]",2.0,0.414697845988,,,,,0.0,6.0,0.0,6.0
8,,,1.0,p,2.0,2016_Mar_29_1343,m,middle,ilya5c-p,middle_ring,120.079741915,m,,,,,,,"[1, 0, 1]",13,1.0,0.0,"[2, 3]",2.0,0.48970871267099997,,,,,6.0,7.0,0.0,7.0
9,,,,,,2016_Mar_29_1343,,,ilya5c-p,,120.079741915,m,,,space,11.533856946199998,,,,13,,,,,,,,,,,,,
10,,,1.0,g,1.0,2016_Mar_29_1343,i,index,ilya5c-p,middle_ring,120.079741915,m,space,2.73369002197,,,,,"[1, 0, 1]",13,0.0,1.0,"[2, 3]",1.0,0.46353631885499996,1.0,0.0,0.0,0.0,,,,
11,,,1.0,g,1.0,2016_Mar_29_1343,m,middle,ilya5c-p,middle_ring,120.079741915,m,None,,,,,,"[1, 0, 1]",13,0.0,0.0,"[2, 3]",1.0,0.713933254473,2.0,1.0,0.0,1.0,,,,
12,,,1.0,p,2.0,2016_Mar_29_1343,b,ring,ilya5c-p,middle_ring,120.079741915,m,None,,,,,,"[1, 0, 1]",13,0.0,1.0,"[2, 3]",2.0,0.414449119793,7.0,2.0,0.0,2.0,,,,
13,,,1.0,p,2.0,2016_Mar_29_1343,0,baseline,ilya5c-p,middle_ring,120.079741915,m,None,,,,,,"[1, 0, 1]",13,0.0,1.0,"[2, 3]",2.0,0.489410784559,4.0,3.0,0.0,3.0,,,,
14,,,0.0,g,1.0,2016_Mar_29_1343,b,ring,ilya5c-p,middle_ring,120.079741915,m,None,,,,,,"[1, 0, 1]",13,0.0,1.0,"[2, 3]",2.0,0.464425575335,3.0,4.0,0.0,4.0,,,,
15,,,1.0,g,1.0,2016_Mar_29_1343,0,baseline,ilya5c-p,middle_ring,120.079741915,m,None,,,,,,"[1, 0, 1]",13,0.0,1.0,"[2, 3]",1.0,0.48949349205700005,0.0,5.0,0.0,5.0,,,,
16,,,1.0,g,1.0,2016_Mar_29_1343,b,ring,ilya5c-p,middle_ring,120.079741915,m,None,,,,,,"[1, 0, 1]",13,0.0,1.0,"[2, 3]",1.0,0.48942074569399996,3.0,6.0,0.0,6.0,,,,
17,,,1.0,p,2.0,2016_Mar_29_1343,0,baseline,ilya5c-p,middle_ring,120.079741915,m,None,,,,,,"[1, 0, 1]",13,0.0,1.0,"[2, 3]",2.0,0.489413501227,4.0,7.0,0.0,7.0,,,,
18,,,1.0,g,1.0,2016_Mar_29_1343,i,index,ilya5c-p,middle_ring,120.079741915,m,None,,,,,,"[1, 0, 1]",13,0.0,1.0,"[2, 3]",1.0,0.389423764221,1.0,8.0,1.0,0.0,,,,
19,,,1.0,p,2.0,2016_Mar_29_1343,i,index,ilya5c-p,middle_ring,120.079741915,m,None,,,,,,"[1, 0, 1]",13,0.0,1.0,"[2, 3]",2.0,0.489373354908,5.0,9.0,1.0,1.0,,,,
20,,,1.0,g,1.0,2016_Mar_29_1343,m,middle,ilya5c-p,middle_ring,120.079741915,m,None,,,,,,"[1, 0, 1]",13,0.0,1.0,"[2, 3]",1.0,0.414438856822,2.0,10.0,1.0,2.0,,,,
21,,,1.0,p,2.0,2016_Mar_29_1343,i,index,ilya5c-p,middle_ring,120.079741915,m,None,,,,,,"[1, 0, 1]",13,0.0,1.0,"[2, 3]",2.0,0.439437649414,5.0,11.0,1.0,3.0,,,,
22,,,1.0,p,2.0,2016_Mar_29_1343,b,ring,ilya5c-p,middle_ring,120.079741915,m,None,,,,,,"[1, 0, 1]",13,0.0,1.0,"[2, 3]",2.0,0.489456364242,7.0,12.0,1.0,4.0,,,,
23,,,1.0,g,1.0,2016_Mar_29_1343,0,baseline,ilya5c-p,middle_ring,120.079741915,m,None,,,,,,"[1, 0, 1]",13,0.0,1.0,"[2, 3]",1.0,0.36440504938699997,0.0,13.0,1.0,5.0,,,,
24,,,1.0,g,1.0,2016_Mar_29_1343,b,ring,ilya5c-p,middle_ring,120.079741915,m,None,,,,,,"[1, 0, 1]",13,0.0,1.0,"[2, 3]",1.0,0.31441501050500004,3.0,14.0,1.0,6.0,,,,
25,,,1.0,g,1.0,2016_Mar_29_1343,0,baseline,ilya5c-p,middle_ring,120.079741915,m,None,,,,,,"[1, 0, 1]",13,0.0,1.0,"[2, 3]",1.0,0.46442316050300003,0.0,15.0,1.0,7.0,,,,
26,,,1.0,g,1.0,2016_Mar_29_1343,b,ring,ilya5c-p,middle_ring,120.079741915,m,None,,,,,,"[1, 0, 1]",13,0.0,1.0,"[2, 3]",1.0,0.41441682161300003,3.0,16.0,2.0,0.0,,,,
27,,,1.0,g,1.0,2016_Mar_29_1343,i,index,ilya5c-p,middle_ring,120.079741915,m,None,,,,,,"[1, 0, 1]",13,0.0,1.0,"[2, 3]",1.0,0.414421047547,1.0,17.0,2.0,1.0,,,,
28,,,1.0,p,2.0,2016_Mar_29_1343,i,index,ilya5c-p,middle_ring,120.079741915,m,None,,,,,,"[1, 0, 1]",13,0.0,1.0,"[2, 3]",2.0,0.5394195382810001,5.0,18.0,2.0,2.0,,,,
29,,,1.0,p,2.0,2016_Mar_29_1343,b,ring,ilya5c-p,middle_ring,120.079741915,m,None,,,,,,"[1, 0, 1]",13,0.0,1.0,"[2, 3]",2.0,0.43943644201300003,7.0,19.0,2.0,3.0,,,,
30,,,1.0,g,1.0,2016_Mar_29_1343,b,ring,ilya5c-p,middle_ring,120.079741915,m,None,,,,,,"[1, 0, 1]",13,0.0,1.0,"[2, 3]",1.0,0.464439158675,3.0,20.0,2.0,4.0,,,,
31,,,1.0,p,2.0,2016_Mar_29_1343,b,ring,ilya5c-p,middle_ring,120.079741915,m,None,,,,,,"[1, 0, 1]",13,0.0,1.0,"[2, 3]",2.0,0.439420443841,7.0,21.0,2.0,5.0,,,,
32,,,1.0,p,2.0,2016_Mar_29_1343,0,baseline,ilya5c-p,middle_ring,120.079741915,m,None,,,,,,"[1, 0, 1]",13,0.0,1.0,"[2, 3]",2.0,0.464445195741,4.0,22.0,2.0,6.0,,,,
33,,,1.0,p,2.0,2016_Mar_29_1343,m,middle,ilya5c-p,middle_ring,120.079741915,m,None,,,,,,"[1, 0, 1]",13,0.0,1.0,"[2, 3]",2.0,0.414500434677,6.0,23.0,2.0,7.0,,,,
34,,,1.0,p,2.0,2016_Mar_29_1343,m,middle,ilya5c-p,middle_ring,120.079741915,m,None,,,,,,"[1, 0, 1]",13,0.0,1.0,"[2, 3]",2.0,0.439468438327,6.0,24.0,3.0,0.0,,,,
35,,,1.0,p,2.0,2016_Mar_29_1343,m,middle,ilya5c-p,middle_ring,120.079741915,m,None,,,,,,"[1, 0, 1]",13,0.0,1.0,"[2, 3]",2.0,0.38942255682,6.0,25.0,3.0,1.0,,,,
36,,,1.0,p,2.0,2016_Mar_29_1343,0,baseline,ilya5c-p,middle_ring,120.079741915,m,None,,,,,,"[1, 0, 1]",13,0.0,1.0,"[2, 3]",2.0,0.389426480889,4.0,26.0,3.0,2.0,,,,
37,,,1.0,g,1.0,2016_Mar_29_1343,m,middle,ilya5c-p,middle_ring,120.079741915,m,None,,,,,,"[1, 0, 1]",13,0.0,1.0,"[2, 3]",1.0,0.314415916071,2.0,27.0,3.0,3.0,,,,
38,,,1.0,g,1.0,2016_Mar_29_1343,m,middle,ilya5c-p,middle_ring,120.079741915,m,None,,,,,,"[1, 0, 1]",13,0.0,1.0,"[2, 3]",1.0,0.33946330685099996,2.0,28.0,3.0,4.0,,,,
39,,,1.0,p,2.0,2016_Mar_29_1343,i,index,ilya5c-p,middle_ring,120.079741915,m,None,,,,,,"[1, 0, 1]",13,0.0,1.0,"[2, 3]",2.0,0.464400823429,5.0,29.0,3.0,5.0,,,,
40,,,1.0,g,1.0,2016_Mar_29_1343,0,baseline,ilya5c-p,middle_ring,120.079741915,m,None,,,,,,"[1, 0, 1]",13,0.0,1.0,"[2, 3]",1.0,0.48923359735399996,0.0,30.0,3.0,6.0,,,,
41,,,1.0,p,2.0,2016_Mar_29_1343,m,middle,ilya5c-p,middle_ring,120.079741915,m,None,,,,,,"[1, 0, 1]",13,0.0,1.0,"[2, 3]",2.0,0.589427688302,6.0,31.0,3.0,7.0,,,,
42,,,1.0,p,2.0,2016_Mar_29_1343,i,index,ilya5c-p,middle_ring,120.079741915,m,None,,,,,,"[1, 0, 1]",13,0.0,1.0,"[2, 3]",2.0,0.414403540138,5.0,32.0,4.0,0.0,,,,
43,,,1.0,g,1.0,2016_Mar_29_1343,m,middle,ilya5c-p,middle_ring,120.079741915,m,None,,,,,,"[1, 0, 1]",13,0.0,1.0,"[2, 3]",1.0,0.489473569816,2.0,33.0,4.0,1.0,,,,
44,,,1.0,g,1.0,2016_Mar_29_1343,i,index,ilya5c-p,middle_ring,120.079741915,m,None,,,,,,"[1, 0, 1]",13,0.0,1.0,"[2, 3]",1.0,0.4394294994100001,1.0,34.0,4.0,2.0,,,,
45,,,1.0,p,2.0,2016_Mar_29_1343,b,ring,ilya5c-p,middle_ring,120.079741915,m,None,,,,,,"[1, 0, 1]",13,0.0,1.0,"[2, 3]",2.0,0.414186206557,7.0,35.0,4.0,3.0,,,,
46,,,1.0,g,1.0,2016_Mar_29_1343,i,index,ilya5c-p,middle_ring,120.079741915,m,None,,,,,,"[1, 0, 1]",13,0.0,1.0,"[2, 3]",1.0,0.41430604187,1.0,36.0,4.0,4.0,,,,
47,,,1.0,p,2.0,2016_Mar_29_1343,b,ring,ilya5c-p,middle_ring,120.079741915,m,None,,,,,,"[1, 0, 1]",13,0.0,1.0,"[2, 3]",2.0,0.414430103117,7.0,37.0,4.0,5.0,,,,
48,,,1.0,p,2.0,2016_Mar_29_1343,0,baseline,ilya5c-p,middle_ring,120.079741915,m,None,,,,,,"[1, 0, 1]",13,0.0,1.0,"[2, 3]",2.0,0.489415010522,4.0,38.0,4.0,6.0,,,,
49,,,1.0,g,1.0,2016_Mar_29_1343,0,baseline,ilya5c-p,middle_ring,120.079741915,m,None,,,,,,"[1, 0, 1]",13,0.0,1.0,"[2, 3]",1.0,0.564459684623,0.0,39.0,4.0,7.0,,,,
50,,,1.0,g,1.0,2016_Mar_29_1343,i,index,ilya5c-p,middle_ring,120.079741915,m,None,,,,,,"[1, 0, 1]",13,0.0,1.0,"[2, 3]",1.0,0.5144506290649999,1.0,40.0,5.0,0.0,,,,
51,,,1.0,g,1.0,2016_Mar_29_1343,i,index,ilya5c-p,middle_ring,120.079741915,m,None,,,,,,"[1, 0, 1]",13,0.0,0.0,"[2, 3]",1.0,0.414420745682,1.0,41.0,5.0,1.0,,,,
52,,,0.0,p,2.0,2016_Mar_29_1343,i,index,ilya5c-p,middle_ring,120.079741915,m,None,,,,,,"[1, 0, 1]",13,0.0,1.0,"[2, 3]",1.0,0.36449469948799995,5.0,42.0,5.0,2.0,,,,
53,,,1.0,g,1.0,2016_Mar_29_1343,b,ring,ilya5c-p,middle_ring,120.079741915,m,None,,,,,,"[1, 0, 1]",13,0.0,1.0,"[2, 3]",1.0,0.539356753024,3.0,43.0,5.0,3.0,,,,
54,,,1.0,g,1.0,2016_Mar_29_1343,0,baseline,ilya5c-p,middle_ring,120.079741915,m,None,,,,,,"[1, 0, 1]",13,0.0,1.0,"[2, 3]",1.0,0.439435234582,0.0,44.0,5.0,4.0,,,,
55,,,1.0,p,2.0,2016_Mar_29_1343,0,baseline,ilya5c-p,middle_ring,120.079741915,m,None,,,,,,"[1, 0, 1]",13,0.0,1.0,"[2, 3]",2.0,0.43945726982,4.0,45.0,5.0,5.0,,,,
56,,,1.0,g,1.0,2016_Mar_29_1343,0,baseline,ilya5c-p,middle_ring,120.079741915,m,None,,,,,,"[1, 0, 1]",13,0.0,1.0,"[2, 3]",1.0,0.33939659752400003,0.0,46.0,5.0,6.0,,,,
57,,,1.0,g,1.0,2016_Mar_29_1343,b,ring,ilya5c-p,middle_ring,120.079741915,m,None,,,,,,"[1, 0, 1]",13,0.0,1.0,"[2, 3]",1.0,0.38941923645099996,3.0,47.0,5.0,7.0,,,,
58,,,1.0,p,2.0,2016_Mar_29_1343,0,baseline,ilya5c-p,middle_ring,120.079741915,m,None,,,,,,"[1, 0, 1]",13,0.0,1.0,"[2, 3]",2.0,0.539431008653,4.0,48.0,6.0,0.0,,,,
59,,,1.0,g,1.0,2016_Mar_29_1343,b,ring,ilya5c-p,middle_ring,120.079741915,m,None,,,,,,"[1, 0, 1]",13,0.0,1.0,"[2, 3]",1.0,0.564376071588,3.0,49.0,6.0,1.0,,,,
60,,,1.0,p,2.0,2016_Mar_29_1343,i,index,ilya5c-p,middle_ring,120.079741915,m,None,,,,,,"[1, 0, 1]",13,0.0,1.0,"[2, 3]",2.0,0.46445425131000007,5.0,50.0,6.0,2.0,,,,
61,,,1.0,p,2.0,2016_Mar_29_1343,b,ring,ilya5c-p,middle_ring,120.079741915,m,None,,,,,,"[1, 0, 1]",13,0.0,1.0,"[2, 3]",2.0,0.43943795125,7.0,51.0,6.0,3.0,,,,
62,,,1.0,p,2.0,2016_Mar_29_1343,i,index,ilya5c-p,middle_ring,120.079741915,m,None,,,,,,"[1, 0, 1]",13,0.0,1.0,"[2, 3]",2.0,0.41439176787199994,5.0,52.0,6.0,4.0,,,,
63,,,1.0,p,2.0,2016_Mar_29_1343,0,baseline,ilya5c-p,middle_ring,120.079741915,m,None,,,,,,"[1, 0, 1]",13,0.0,1.0,"[2, 3]",2.0,0.589469042022,4.0,53.0,6.0,5.0,,,,
64,,,1.0,p,2.0,2016_Mar_29_1343,b,ring,ilya5c-p,middle_ring,120.079741915,m,None,,,,,,"[1, 0, 1]",13,0.0,1.0,"[2, 3]",2.0,0.389410482746,7.0,54.0,6.0,6.0,,,,
65,,,1.0,g,1.0,2016_Mar_29_1343,0,baseline,ilya5c-p,middle_ring,120.079741915,m,None,,,,,,"[1, 0, 1]",13,0.0,1.0,"[2, 3]",1.0,0.38944821426200005,0.0,55.0,6.0,7.0,,,,
66,,,1.0,g,1.0,2016_Mar_29_1343,0,baseline,ilya5c-p,middle_ring,120.079741915,m,None,,,,,,"[1, 0, 1]",13,0.0,1.0,"[2, 3]",1.0,0.389411690148,0.0,56.0,7.0,0.0,,,,
67,,,1.0,g,1.0,2016_Mar_29_1343,i,index,ilya5c-p,middle_ring,120.079741915,m,None,,,,,,"[1, 0, 1]",13,0.0,1.0,"[2, 3]",1.0,0.38942708461900005,1.0,57.0,7.0,1.0,,,,
68,,,1.0,g,1.0,2016_Mar_29_1343,m,middle,ilya5c-p,middle_ring,120.079741915,m,None,,,,,,"[1, 0, 1]",13,0.0,1.0,"[2, 3]",1.0,0.289453647592,2.0,58.0,7.0,2.0,,,,
69,,,1.0,p,2.0,2016_Mar_29_1343,0,baseline,ilya5c-p,middle_ring,120.079741915,m,None,,,,,,"[1, 0, 1]",13,0.0,1.0,"[2, 3]",2.0,0.4643917678600001,4.0,59.0,7.0,3.0,,,,
70,,,1.0,p,2.0,2016_Mar_29_1343,m,middle,ilya5c-p,middle_ring,120.079741915,m,None,,,,,,"[1, 0, 1]",13,0.0,1.0,"[2, 3]",2.0,0.289423764215,6.0,60.0,7.0,4.0,,,,
71,,,1.0,g,1.0,2016_Mar_29_1343,0,baseline,ilya5c-p,middle_ring,120.079741915,m,None,,,,,,"[1, 0, 1]",13,0.0,1.0,"[2, 3]",1.0,0.364420443858,0.0,61.0,7.0,5.0,,,,
72,,,1.0,g,1.0,2016_Mar_29_1343,0,baseline,ilya5c-p,middle_ring,120.079741915,m,None,,,,,,"[1, 0, 1]",13,0.0,1.0,"[2, 3]",1.0,0.389443988327,0.0,62.0,7.0,6.0,,,,
73,,,1.0,g,1.0,2016_Mar_29_1343,0,baseline,ilya5c-p,middle_ring,120.079741915,m,None,,,,,,"[1, 0, 1]",13,0.0,1.0,"[2, 3]",1.0,0.33943674387199996,0.0,63.0,7.0,7.0,,,,
74,,,1.0,p,2.0,2016_Mar_29_1343,m,middle,ilya5c-p,middle_ring,120.079741915,m,None,,,,,,"[1, 0, 1]",13,0.0,1.0,"[2, 3]",2.0,0.38939478641,6.0,64.0,8.0,0.0,,,,
75,,,1.0,g,1.0,2016_Mar_29_1343,i,index,ilya5c-p,middle_ring,120.079741915,m,None,,,,,,"[1, 0, 1]",13,0.0,1.0,"[2, 3]",1.0,0.33942497163400004,1.0,65.0,8.0,1.0,,,,
76,,,1.0,p,2.0,2016_Mar_29_1343,m,middle,ilya5c-p,middle_ring,120.079741915,m,None,,,,,,"[1, 0, 1]",13,0.0,1.0,"[2, 3]",2.0,0.414438554957,6.0,66.0,8.0,2.0,,,,
77,,,1.0,g,1.0,2016_Mar_29_1343,i,index,ilya5c-p,middle_ring,120.079741915,m,None,,,,,,"[1, 0, 1]",13,0.0,1.0,"[2, 3]",1.0,0.364392975285,1.0,67.0,8.0,3.0,,,,
78,,,1.0,p,2.0,2016_Mar_29_1343,m,middle,ilya5c-p,middle_ring,120.079741915,m,None,,,,,,"[1, 0, 1]",13,0.0,1.0,"[2, 3]",2.0,0.36444247903800003,6.0,68.0,8.0,4.0,,,,
79,,,1.0,g,1.0,2016_Mar_29_1343,m,middle,ilya5c-p,middle_ring,120.079741915,m,None,,,,,,"[1, 0, 1]",13,0.0,1.0,"[2, 3]",1.0,0.36444730867299996,2.0,69.0,8.0,5.0,,,,
80,,,1.0,p,2.0,2016_Mar_29_1343,i,index,ilya5c-p,middle_ring,120.079741915,m,None,,,,,,"[1, 0, 1]",13,0.0,1.0,"[2, 3]",2.0,0.43944096981200004,5.0,70.0,8.0,6.0,,,,
81,,,1.0,g,1.0,2016_Mar_29_1343,m,middle,ilya5c-p,middle_ring,120.079741915,m,None,,,,,,"[1, 0, 1]",13,0.0,1.0,"[2, 3]",1.0,0.56441984014,2.0,71.0,8.0,7.0,,,,
82,,,1.0,p,2.0,2016_Mar_29_1343,0,baseline,ilya5c-p,middle_ring,120.079741915,m,None,,,,,,"[1, 0, 1]",13,0.0,1.0,"[2, 3]",2.0,0.36438693827699997,4.0,72.0,9.0,0.0,,,,
83,,,1.0,g,1.0,2016_Mar_29_1343,0,baseline,ilya5c-p,middle_ring,120.079741915,m,None,,,,,,"[1, 0, 1]",13,0.0,1.0,"[2, 3]",1.0,0.38941531235200005,0.0,73.0,9.0,1.0,,,,
84,,,1.0,p,2.0,2016_Mar_29_1343,0,baseline,ilya5c-p,middle_ring,120.079741915,m,None,,,,,,"[1, 0, 1]",13,0.0,1.0,"[2, 3]",2.0,0.364415312329,4.0,74.0,9.0,2.0,,,,
85,,,1.0,p,2.0,2016_Mar_29_1343,i,index,ilya5c-p,middle_ring,120.079741915,m,None,,,,,,"[1, 0, 1]",13,0.0,1.0,"[2, 3]",2.0,0.514433423491,5.0,75.0,9.0,3.0,,,,
86,,,1.0,g,1.0,2016_Mar_29_1343,0,baseline,ilya5c-p,middle_ring,120.079741915,m,None,,,,,,"[1, 0, 1]",13,0.0,1.0,"[2, 3]",1.0,0.5144554587,0.0,76.0,9.0,4.0,,,,
87,,,1.0,p,2.0,2016_Mar_29_1343,m,middle,ilya5c-p,middle_ring,120.079741915,m,None,,,,,,"[1, 0, 1]",13,0.0,1.0,"[2, 3]",2.0,0.614434329034,6.0,77.0,9.0,5.0,,,,
88,,,1.0,p,2.0,2016_Mar_29_1343,b,ring,ilya5c-p,middle_ring,120.079741915,m,None,,,,,,"[1, 0, 1]",13,0.0,1.0,"[2, 3]",2.0,0.46444761054399997,7.0,78.0,9.0,6.0,,,,
89,,,1.0,p,2.0,2016_Mar_29_1343,b,ring,ilya5c-p,middle_ring,120.079741915,m,None,,,,,,"[1, 0, 1]",13,0.0,1.0,"[2, 3]",2.0,0.43943131051299994,7.0,79.0,9.0,7.0,,,,
90,,,1.0,g,1.0,2016_Mar_29_1343,m,middle,ilya5c-p,middle_ring,120.079741915,m,None,,,,,,"[1, 0, 1]",13,0.0,1.0,"[2, 3]",1.0,0.439431914242,2.0,80.0,10.0,0.0,,,,
91,,,1.0,g,1.0,2016_Mar_29_1343,b,ring,ilya5c-p,middle_ring,120.079741915,m,None,,,,,,"[1, 0, 1]",13,0.0,0.0,"[2, 3]",1.0,0.539426782748,3.0,81.0,10.0,1.0,,,,
92,,,1.0,p,2.0,2016_Mar_29_1343,i,index,ilya5c-p,middle_ring,120.079741915,m,None,,,,,,"[1, 0, 1]",13,0.0,1.0,"[2, 3]",2.0,0.464443686445,5.0,82.0,10.0,2.0,,,,
93,,,1.0,g,1.0,2016_Mar_29_1343,b,ring,ilya5c-p,middle_ring,120.079741915,m,None,,,,,,"[1, 0, 1]",13,0.0,1.0,"[2, 3]",1.0,0.314399917899,3.0,83.0,10.0,3.0,,,,
94,,,1.0,p,2.0,2016_Mar_29_1343,m,middle,ilya5c-p,middle_ring,120.079741915,m,None,,,,,,"[1, 0, 1]",13,0.0,1.0,"[2, 3]",2.0,0.38948141797799996,6.0,84.0,10.0,4.0,,,,
95,,,1.0,p,2.0,2016_Mar_29_1343,i,index,ilya5c-p,middle_ring,120.079741915,m,None,,,,,,"[1, 0, 1]",13,0.0,1.0,"[2, 3]",2.0,0.41440535121100003,5.0,85.0,10.0,5.0,,,,
96,,,1.0,p,2.0,2016_Mar_29_1343,m,middle,ilya5c-p,middle_ring,120.079741915,m,None,,,,,,"[1, 0, 1]",13,0.0,1.0,"[2, 3]",2.0,0.414395390105,6.0,86.0,10.0,6.0,,,,
