,Unnamed: 29,Unnamed: 31,correct,cueColor,cueNumber,date,distCode,distrType,expName,expType,frameRate,gender,keyBreak.keys,keyBreak.rt,key_resp_2.keys,key_resp_2.rt,key_resp_3.keys,key_resp_3.rt,mousePressedStart,participant,practice,prevTrialBreak,respExpected,response,rt,trials.thisIndex,trials.thisN,trials.thisRepN,trials.thisTrialN,trialsPractice.thisIndex,trialsPractice.thisN,trialsPractice.thisRepN,trialsPractice.thisTrialN
0,,,,,,2016_Mar_16_1147,,,ilya4,,119.979718329,m,,,,,space,143.244203147,,10,,,,,,,,,,,,,
1,,,1.0,p,2.0,2016_Mar_16_1147,m,middle,ilya4,index_ring,119.979718329,m,,,,,,,"[1, 0, 0]",10,1.0,0.0,"[1, 3]",2.0,2.4573929738799998,,,,,6.0,0.0,0.0,0.0
2,,,0.0,g,1.0,2016_Mar_16_1147,i,index,ilya4,index_ring,119.979718329,m,,,,,,,"[1, 0, 1]",10,1.0,0.0,"[1, 3]",2.0,-0.557518739197,,,,,1.0,1.0,0.0,1.0
3,,,1.0,g,1.0,2016_Mar_16_1147,0,baseline,ilya4,index_ring,119.979718329,m,,,,,,,"[1, 0, 1]",10,1.0,0.0,"[1, 3]",1.0,0.964673753418,,,,,0.0,2.0,0.0,2.0
4,,,1.0,g,1.0,2016_Mar_16_1147,m,middle,ilya4,index_ring,119.979718329,m,,,,,,,"[1, 0, 1]",10,1.0,0.0,"[1, 3]",1.0,0.739693434499,,,,,2.0,3.0,0.0,3.0
5,,,1.0,p,2.0,2016_Mar_16_1147,b,ring,ilya4,index_ring,119.979718329,m,,,,,,,"[1, 0, 1]",10,1.0,0.0,"[1, 3]",2.0,0.414629863631,,,,,7.0,4.0,0.0,4.0
6,,,1.0,p,2.0,2016_Mar_16_1147,0,baseline,ilya4,index_ring,119.979718329,m,,,,,,,"[1, 0, 1]",10,1.0,0.0,"[1, 3]",2.0,0.389654555414,,,,,4.0,5.0,0.0,5.0
7,,,1.0,p,2.0,2016_Mar_16_1147,i,index,ilya4,index_ring,119.979718329,m,,,,,,,"[1, 0, 1]",10,1.0,0.0,"[1, 3]",2.0,0.439630527571,,,,,5.0,6.0,0.0,6.0
8,,,1.0,g,1.0,2016_Mar_16_1147,b,ring,ilya4,index_ring,119.979718329,m,,,,,,,"[1, 0, 1]",10,1.0,0.0,"[1, 3]",1.0,0.439668863602,,,,,3.0,7.0,0.0,7.0
9,,,,,,2016_Mar_16_1147,,,ilya4,,119.979718329,m,,,space,15.6014726977,,,,10,,,,,,,,,,,,,
10,,,1.0,g,1.0,2016_Mar_16_1147,i,index,ilya4,index_ring,119.979718329,m,space,3.7087494931199996,,,,,"[1, 0, 1]",10,0.0,1.0,"[1, 3]",1.0,0.46791418368,1.0,0.0,0.0,0.0,,,,
11,,,1.0,g,1.0,2016_Mar_16_1147,i,index,ilya4,index_ring,119.979718329,m,None,,,,,,"[1, 0, 1]",10,0.0,0.0,"[1, 3]",1.0,0.464105357472,1.0,1.0,0.0,1.0,,,,
12,,,1.0,g,1.0,2016_Mar_16_1147,0,baseline,ilya4,index_ring,119.979718329,m,None,,,,,,"[1, 0, 1]",10,0.0,1.0,"[1, 3]",1.0,0.489387955572,0.0,2.0,0.0,2.0,,,,
13,,,1.0,p,2.0,2016_Mar_16_1147,0,baseline,ilya4,index_ring,119.979718329,m,None,,,,,,"[1, 0, 1]",10,0.0,1.0,"[1, 3]",2.0,0.36443595081600005,4.0,3.0,0.0,3.0,,,,
14,,,1.0,g,1.0,2016_Mar_16_1147,m,middle,ilya4,index_ring,119.979718329,m,None,,,,,,"[1, 0, 1]",10,0.0,1.0,"[1, 3]",1.0,0.339377028458,2.0,4.0,0.0,4.0,,,,
15,,,1.0,p,2.0,2016_Mar_16_1147,i,index,ilya4,index_ring,119.979718329,m,None,,,,,,"[1, 0, 1]",10,0.0,1.0,"[1, 3]",2.0,0.289356985185,5.0,5.0,0.0,5.0,,,,
16,,,1.0,g,1.0,2016_Mar_16_1147,b,ring,ilya4,index_ring,119.979718329,m,None,,,,,,"[1, 0, 0]",10,0.0,1.0,"[1, 3]",1.0,0.514395260774,3.0,6.0,0.0,6.0,,,,
17,,,1.0,p,2.0,2016_Mar_16_1147,m,middle,ilya4,index_ring,119.979718329,m,None,,,,,,"[1, 0, 1]",10,0.0,1.0,"[1, 3]",2.0,0.68928882625,6.0,7.0,0.0,7.0,,,,
18,,,1.0,p,2.0,2016_Mar_16_1147,0,baseline,ilya4,index_ring,119.979718329,m,None,,,,,,"[1, 0, 1]",10,0.0,1.0,"[1, 3]",2.0,0.339427740369,4.0,8.0,1.0,0.0,,,,
19,,,1.0,p,2.0,2016_Mar_16_1147,b,ring,ilya4,index_ring,119.979718329,m,None,,,,,,"[1, 0, 1]",10,0.0,1.0,"[1, 3]",2.0,0.36428502300800003,7.0,9.0,1.0,1.0,,,,
20,,,1.0,g,1.0,2016_Mar_16_1147,0,baseline,ilya4,index_ring,119.979718329,m,None,,,,,,"[1, 0, 1]",10,0.0,1.0,"[1, 3]",1.0,0.36440787795900004,0.0,10.0,1.0,2.0,,,,
21,,,0.0,p,2.0,2016_Mar_16_1147,i,index,ilya4,index_ring,119.979718329,m,None,,,,,,"[1, 0, 1]",10,0.0,1.0,"[1, 3]",1.0,0.46435710560500004,5.0,11.0,1.0,3.0,,,,
22,,,1.0,p,2.0,2016_Mar_16_1147,i,index,ilya4,index_ring,119.979718329,m,None,,,,,,"[1, 0, 1]",10,0.0,1.0,"[1, 3]",2.0,-0.485684429705,5.0,12.0,1.0,4.0,,,,
23,,,1.0,g,1.0,2016_Mar_16_1147,i,index,ilya4,index_ring,119.979718329,m,None,,,,,,"[1, 0, 1]",10,0.0,1.0,"[1, 3]",1.0,0.364365014303,1.0,13.0,1.0,5.0,,,,
24,,,0.0,g,1.0,2016_Mar_16_1147,0,baseline,ilya4,index_ring,119.979718329,m,None,,,,,,"[1, 0, 1]",10,0.0,1.0,"[1, 3]",2.0,0.189423755798,0.0,14.0,1.0,6.0,,,,
25,,,1.0,g,1.0,2016_Mar_16_1147,0,baseline,ilya4,index_ring,119.979718329,m,None,,,,,,"[1, 0, 1]",10,0.0,1.0,"[1, 3]",1.0,0.86444410082,0.0,15.0,1.0,7.0,,,,
26,,,1.0,p,2.0,2016_Mar_16_1147,m,middle,ilya4,index_ring,119.979718329,m,None,,,,,,"[1, 0, 1]",10,0.0,1.0,"[1, 3]",2.0,0.33941596798600004,6.0,16.0,2.0,0.0,,,,
27,,,1.0,p,2.0,2016_Mar_16_1147,0,baseline,ilya4,index_ring,119.979718329,m,None,,,,,,"[1, 0, 1]",10,0.0,1.0,"[1, 3]",2.0,0.38940491998599996,4.0,17.0,2.0,1.0,,,,
28,,,1.0,p,2.0,2016_Mar_16_1147,b,ring,ilya4,index_ring,119.979718329,m,None,,,,,,"[1, 0, 1]",10,0.0,1.0,"[1, 3]",2.0,0.414393208046,7.0,18.0,2.0,2.0,,,,
29,,,1.0,p,2.0,2016_Mar_16_1147,m,middle,ilya4,index_ring,119.979718329,m,None,,,,,,"[1, 0, 1]",10,0.0,1.0,"[1, 3]",2.0,0.389409749359,6.0,19.0,2.0,3.0,,,,
30,,,1.0,p,2.0,2016_Mar_16_1147,i,index,ilya4,index_ring,119.979718329,m,None,,,,,,"[1, 0, 1]",10,0.0,1.0,"[1, 3]",2.0,0.314410172459,5.0,20.0,2.0,4.0,,,,
31,,,1.0,g,1.0,2016_Mar_16_1147,b,ring,ilya4,index_ring,119.979718329,m,None,,,,,,"[1, 0, 1]",10,0.0,1.0,"[1, 3]",1.0,0.389288403615,3.0,21.0,2.0,5.0,,,,
32,,,1.0,g,1.0,2016_Mar_16_1147,b,ring,ilya4,index_ring,119.979718329,m,None,,,,,,"[1, 0, 0]",10,0.0,1.0,"[1, 3]",1.0,0.514433294591,3.0,22.0,2.0,6.0,,,,
33,,,1.0,p,2.0,2016_Mar_16_1147,b,ring,ilya4,index_ring,119.979718329,m,None,,,,,,"[1, 0, 1]",10,0.0,1.0,"[1, 3]",2.0,-0.558306282796,7.0,23.0,2.0,7.0,,,,
34,,,1.0,g,1.0,2016_Mar_16_1147,m,middle,ilya4,index_ring,119.979718329,m,None,,,,,,"[1, 0, 1]",10,0.0,1.0,"[1, 3]",1.0,0.439412889127,2.0,24.0,3.0,0.0,,,,
35,,,1.0,g,1.0,2016_Mar_16_1147,m,middle,ilya4,index_ring,119.979718329,m,None,,,,,,"[1, 0, 1]",10,0.0,1.0,"[1, 3]",1.0,0.36439248366300003,2.0,25.0,3.0,1.0,,,,
36,,,1.0,p,2.0,2016_Mar_16_1147,b,ring,ilya4,index_ring,119.979718329,m,None,,,,,,"[1, 0, 1]",10,0.0,1.0,"[1, 3]",2.0,0.364425989389,7.0,26.0,3.0,2.0,,,,
37,,,1.0,p,2.0,2016_Mar_16_1147,b,ring,ilya4,index_ring,119.979718329,m,None,,,,,,"[1, 0, 1]",10,0.0,1.0,"[1, 3]",2.0,0.36432245286200005,7.0,27.0,3.0,3.0,,,,
38,,,1.0,p,2.0,2016_Mar_16_1147,b,ring,ilya4,index_ring,119.979718329,m,None,,,,,,"[1, 0, 1]",10,0.0,1.0,"[1, 3]",2.0,0.389376243632,7.0,28.0,3.0,4.0,,,,
39,,,1.0,p,2.0,2016_Mar_16_1147,b,ring,ilya4,index_ring,119.979718329,m,None,,,,,,"[1, 0, 1]",10,0.0,1.0,"[1, 3]",2.0,0.514378055055,7.0,29.0,3.0,5.0,,,,
40,,,1.0,g,1.0,2016_Mar_16_1147,i,index,ilya4,index_ring,119.979718329,m,None,,,,,,"[1, 0, 1]",10,0.0,1.0,"[1, 3]",1.0,0.364374372233,1.0,30.0,3.0,6.0,,,,
41,,,1.0,g,1.0,2016_Mar_16_1147,i,index,ilya4,index_ring,119.979718329,m,None,,,,,,"[1, 0, 1]",10,0.0,1.0,"[1, 3]",1.0,0.414411319476,1.0,31.0,3.0,7.0,,,,
42,,,1.0,g,1.0,2016_Mar_16_1147,b,ring,ilya4,index_ring,119.979718329,m,None,,,,,,"[1, 0, 1]",10,0.0,1.0,"[1, 3]",1.0,0.439438848812,3.0,32.0,4.0,0.0,,,,
43,,,1.0,p,2.0,2016_Mar_16_1147,m,middle,ilya4,index_ring,119.979718329,m,None,,,,,,"[1, 0, 1]",10,0.0,1.0,"[1, 3]",2.0,0.41411399055299997,6.0,33.0,4.0,1.0,,,,
44,,,1.0,p,2.0,2016_Mar_16_1147,b,ring,ilya4,index_ring,119.979718329,m,None,,,,,,"[1, 0, 1]",10,0.0,1.0,"[1, 3]",2.0,0.339403893389,7.0,34.0,4.0,2.0,,,,
45,,,1.0,p,2.0,2016_Mar_16_1147,0,baseline,ilya4,index_ring,119.979718329,m,None,,,,,,"[1, 0, 1]",10,0.0,1.0,"[1, 3]",2.0,0.389441746809,4.0,35.0,4.0,3.0,,,,
46,,,1.0,g,1.0,2016_Mar_16_1147,0,baseline,ilya4,index_ring,119.979718329,m,None,,,,,,"[1, 0, 1]",10,0.0,1.0,"[1, 3]",1.0,0.414425808527,0.0,36.0,4.0,4.0,,,,
47,,,1.0,g,1.0,2016_Mar_16_1147,b,ring,ilya4,index_ring,119.979718329,m,None,,,,,,"[1, 0, 1]",10,0.0,1.0,"[1, 3]",1.0,0.439402324203,3.0,37.0,4.0,5.0,,,,
48,,,1.0,g,1.0,2016_Mar_16_1147,i,index,ilya4,index_ring,119.979718329,m,None,,,,,,"[1, 0, 1]",10,0.0,1.0,"[1, 3]",1.0,0.38939344935099995,1.0,38.0,4.0,6.0,,,,
49,,,1.0,g,1.0,2016_Mar_16_1147,b,ring,ilya4,index_ring,119.979718329,m,None,,,,,,"[1, 0, 0]",10,0.0,1.0,"[1, 3]",1.0,0.364434441607,3.0,39.0,4.0,7.0,,,,
50,,,0.0,g,1.0,2016_Mar_16_1147,m,middle,ilya4,index_ring,119.979718329,m,None,,,,,,"[1, 0, 1]",10,0.0,1.0,"[1, 3]",2.0,-0.558318357393,2.0,40.0,5.0,0.0,,,,
51,,,1.0,g,1.0,2016_Mar_16_1147,b,ring,ilya4,index_ring,119.979718329,m,None,,,,,,"[1, 0, 1]",10,0.0,0.0,"[1, 3]",1.0,0.43942949134900006,3.0,41.0,5.0,1.0,,,,
52,,,1.0,g,1.0,2016_Mar_16_1147,b,ring,ilya4,index_ring,119.979718329,m,None,,,,,,"[1, 0, 1]",10,0.0,1.0,"[1, 3]",1.0,0.414358494394,3.0,42.0,5.0,2.0,,,,
53,,,1.0,g,1.0,2016_Mar_16_1147,0,baseline,ilya4,index_ring,119.979718329,m,None,,,,,,"[1, 0, 1]",10,0.0,1.0,"[1, 3]",1.0,0.38938228093099997,0.0,43.0,5.0,3.0,,,,
54,,,1.0,g,1.0,2016_Mar_16_1147,i,index,ilya4,index_ring,119.979718329,m,None,,,,,,"[1, 0, 1]",10,0.0,1.0,"[1, 3]",1.0,0.414403169006,1.0,44.0,5.0,4.0,,,,
55,,,1.0,p,2.0,2016_Mar_16_1147,m,middle,ilya4,index_ring,119.979718329,m,None,,,,,,"[1, 0, 1]",10,0.0,1.0,"[1, 3]",2.0,0.36437829636,6.0,45.0,5.0,5.0,,,,
56,,,1.0,g,1.0,2016_Mar_16_1147,0,baseline,ilya4,index_ring,119.979718329,m,None,,,,,,"[1, 0, 1]",10,0.0,1.0,"[1, 3]",1.0,0.314409870245,0.0,46.0,5.0,6.0,,,,
57,,,1.0,g,1.0,2016_Mar_16_1147,0,baseline,ilya4,index_ring,119.979718329,m,None,,,,,,"[1, 0, 1]",10,0.0,1.0,"[1, 3]",1.0,0.389418201577,0.0,47.0,5.0,7.0,,,,
58,,,1.0,g,1.0,2016_Mar_16_1147,b,ring,ilya4,index_ring,119.979718329,m,None,,,,,,"[1, 0, 1]",10,0.0,1.0,"[1, 3]",1.0,0.439408361036,3.0,48.0,6.0,0.0,,,,
59,,,1.0,p,2.0,2016_Mar_16_1147,m,middle,ilya4,index_ring,119.979718329,m,None,,,,,,"[1, 0, 1]",10,0.0,1.0,"[1, 3]",2.0,0.389381676968,6.0,49.0,6.0,1.0,,,,
60,,,1.0,g,1.0,2016_Mar_16_1147,m,middle,ilya4,index_ring,119.979718329,m,None,,,,,,"[1, 0, 1]",10,0.0,1.0,"[1, 3]",1.0,0.43939417420000004,2.0,50.0,6.0,2.0,,,,
61,,,1.0,g,1.0,2016_Mar_16_1147,b,ring,ilya4,index_ring,119.979718329,m,None,,,,,,"[1, 0, 1]",10,0.0,1.0,"[1, 3]",1.0,0.33940630830799995,3.0,51.0,6.0,3.0,,,,
62,,,1.0,g,1.0,2016_Mar_16_1147,b,ring,ilya4,index_ring,119.979718329,m,None,,,,,,"[1, 0, 1]",10,0.0,1.0,"[1, 3]",1.0,0.314376364518,3.0,52.0,6.0,4.0,,,,
63,,,1.0,g,1.0,2016_Mar_16_1147,0,baseline,ilya4,index_ring,119.979718329,m,None,,,,,,"[1, 0, 1]",10,0.0,1.0,"[1, 3]",1.0,0.314453036115,0.0,53.0,6.0,5.0,,,,
64,,,1.0,p,2.0,2016_Mar_16_1147,0,baseline,ilya4,index_ring,119.979718329,m,None,,,,,,"[1, 0, 1]",10,0.0,1.0,"[1, 3]",2.0,0.489389163032,4.0,54.0,6.0,6.0,,,,
65,,,1.0,g,1.0,2016_Mar_16_1147,i,index,ilya4,index_ring,119.979718329,m,None,,,,,,"[1, 0, 1]",10,0.0,1.0,"[1, 3]",1.0,0.514432388879,1.0,55.0,6.0,7.0,,,,
66,,,1.0,g,1.0,2016_Mar_16_1147,i,index,ilya4,index_ring,119.979718329,m,None,,,,,,"[1, 0, 1]",10,0.0,1.0,"[1, 3]",1.0,0.31437364785,1.0,56.0,7.0,0.0,,,,
67,,,1.0,p,2.0,2016_Mar_16_1147,0,baseline,ilya4,index_ring,119.979718329,m,None,,,,,,"[1, 0, 1]",10,0.0,1.0,"[1, 3]",2.0,0.41442158265,4.0,57.0,7.0,1.0,,,,
68,,,1.0,p,2.0,2016_Mar_16_1147,m,middle,ilya4,index_ring,119.979718329,m,None,,,,,,"[1, 0, 1]",10,0.0,1.0,"[1, 3]",2.0,0.439412285164,6.0,58.0,7.0,2.0,,,,
69,,,1.0,p,2.0,2016_Mar_16_1147,i,index,ilya4,index_ring,119.979718329,m,None,,,,,,"[1, 0, 1]",10,0.0,1.0,"[1, 3]",2.0,0.439421340879,5.0,59.0,7.0,3.0,,,,
70,,,1.0,p,2.0,2016_Mar_16_1147,0,baseline,ilya4,index_ring,119.979718329,m,None,,,,,,"[1, 0, 1]",10,0.0,1.0,"[1, 3]",2.0,0.364449232407,4.0,60.0,7.0,4.0,,,,
71,,,1.0,p,2.0,2016_Mar_16_1147,i,index,ilya4,index_ring,119.979718329,m,None,,,,,,"[1, 0, 1]",10,0.0,1.0,"[1, 3]",2.0,0.43935372499700004,5.0,61.0,7.0,5.0,,,,
72,,,1.0,p,2.0,2016_Mar_16_1147,b,ring,ilya4,index_ring,119.979718329,m,None,,,,,,"[1, 0, 1]",10,0.0,1.0,"[1, 3]",2.0,0.339361935444,7.0,62.0,7.0,6.0,,,,
73,,,1.0,p,2.0,2016_Mar_16_1147,0,baseline,ilya4,index_ring,119.979718329,m,None,,,,,,"[1, 0, 1]",10,0.0,1.0,"[1, 3]",2.0,0.33942411799000005,4.0,63.0,7.0,7.0,,,,
74,,,1.0,p,2.0,2016_Mar_16_1147,0,baseline,ilya4,index_ring,119.979718329,m,None,,,,,,"[1, 0, 1]",10,0.0,1.0,"[1, 3]",2.0,0.339360426236,4.0,64.0,8.0,0.0,,,,
75,,,1.0,p,2.0,2016_Mar_16_1147,i,index,ilya4,index_ring,119.979718329,m,None,,,,,,"[1, 0, 1]",10,0.0,1.0,"[1, 3]",2.0,0.414388981704,5.0,65.0,8.0,1.0,,,,
76,,,1.0,g,1.0,2016_Mar_16_1147,m,middle,ilya4,index_ring,119.979718329,m,None,,,,,,"[1, 0, 1]",10,0.0,1.0,"[1, 3]",1.0,0.364373466522,2.0,66.0,8.0,2.0,,,,
77,,,1.0,p,2.0,2016_Mar_16_1147,m,middle,ilya4,index_ring,119.979718329,m,None,,,,,,"[1, 0, 1]",10,0.0,1.0,"[1, 3]",2.0,0.289329516292,6.0,67.0,8.0,3.0,,,,
78,,,1.0,g,1.0,2016_Mar_16_1147,m,middle,ilya4,index_ring,119.979718329,m,None,,,,,,"[1, 0, 1]",10,0.0,1.0,"[1, 3]",1.0,0.36443232890199995,2.0,68.0,8.0,4.0,,,,
79,,,1.0,g,1.0,2016_Mar_16_1147,b,ring,ilya4,index_ring,119.979718329,m,None,,,,,,"[1, 0, 1]",10,0.0,1.0,"[1, 3]",1.0,0.43944216897699995,3.0,69.0,8.0,5.0,,,,
80,,,1.0,p,2.0,2016_Mar_16_1147,m,middle,ilya4,index_ring,119.979718329,m,None,,,,,,"[1, 0, 1]",10,0.0,1.0,"[1, 3]",2.0,0.41438022820299997,6.0,70.0,8.0,6.0,,,,
81,,,1.0,g,1.0,2016_Mar_16_1147,m,middle,ilya4,index_ring,119.979718329,m,None,,,,,,"[1, 0, 1]",10,0.0,1.0,"[1, 3]",1.0,0.41438385011600004,2.0,71.0,8.0,7.0,,,,
82,,,1.0,p,2.0,2016_Mar_16_1147,b,ring,ilya4,index_ring,119.979718329,m,None,,,,,,"[1, 0, 1]",10,0.0,1.0,"[1, 3]",2.0,0.33934050384900005,7.0,72.0,9.0,0.0,,,,
83,,,1.0,g,1.0,2016_Mar_16_1147,m,middle,ilya4,index_ring,119.979718329,m,None,,,,,,"[1, 0, 1]",10,0.0,1.0,"[1, 3]",1.0,0.364375277944,2.0,73.0,9.0,1.0,,,,
84,,,1.0,p,2.0,2016_Mar_16_1147,i,index,ilya4,index_ring,119.979718329,m,None,,,,,,"[1, 0, 1]",10,0.0,1.0,"[1, 3]",2.0,0.28939109534,5.0,74.0,9.0,2.0,,,,
85,,,1.0,g,1.0,2016_Mar_16_1147,m,middle,ilya4,index_ring,119.979718329,m,None,,,,,,"[1, 0, 1]",10,0.0,1.0,"[1, 3]",1.0,0.43942677468099994,2.0,75.0,9.0,3.0,,,,
86,,,1.0,g,1.0,2016_Mar_16_1147,0,baseline,ilya4,index_ring,119.979718329,m,None,,,,,,"[1, 0, 1]",10,0.0,1.0,"[1, 3]",1.0,0.48941089684100003,0.0,76.0,9.0,4.0,,,,
87,,,1.0,p,2.0,2016_Mar_16_1147,i,index,ilya4,index_ring,119.979718329,m,None,,,,,,"[1, 0, 1]",10,0.0,1.0,"[1, 3]",2.0,0.389356924742,5.0,77.0,9.0,5.0,,,,
88,,,1.0,g,1.0,2016_Mar_16_1147,b,ring,ilya4,index_ring,119.979718329,m,None,,,,,,"[1, 0, 1]",10,0.0,1.0,"[1, 3]",1.0,0.414374190904,3.0,78.0,9.0,6.0,,,,
89,,,1.0,p,2.0,2016_Mar_16_1147,i,index,ilya4,index_ring,119.979718329,m,None,,,,,,"[1, 0, 1]",10,0.0,1.0,"[1, 3]",2.0,0.36439127620300005,5.0,79.0,9.0,7.0,,,,
90,,,1.0,p,2.0,2016_Mar_16_1147,b,ring,ilya4,index_ring,119.979718329,m,None,,,,,,"[1, 0, 1]",10,0.0,1.0,"[1, 3]",2.0,0.414298726767,7.0,80.0,10.0,0.0,,,,
91,,,1.0,p,2.0,2016_Mar_16_1147,0,baseline,ilya4,index_ring,119.979718329,m,None,,,,,,"[1, 0, 1]",10,0.0,0.0,"[1, 3]",2.0,0.414396830425,4.0,81.0,10.0,1.0,,,,
92,,,1.0,p,2.0,2016_Mar_16_1147,b,ring,ilya4,index_ring,119.979718329,m,None,,,,,,"[1, 0, 1]",10,0.0,1.0,"[1, 3]",2.0,0.364414820969,7.0,82.0,10.0,2.0,,,,
93,,,1.0,g,1.0,2016_Mar_16_1147,0,baseline,ilya4,index_ring,119.979718329,m,None,,,,,,"[1, 0, 1]",10,0.0,1.0,"[1, 3]",1.0,0.339367067032,0.0,83.0,10.0,3.0,,,,
94,,,1.0,p,2.0,2016_Mar_16_1147,m,middle,ilya4,index_ring,119.979718329,m,None,,,,,,"[1, 0, 1]",10,0.0,1.0,"[1, 3]",2.0,0.33931756258,6.0,84.0,10.0,4.0,,,,
95,,,1.0,g,1.0,2016_Mar_16_1147,i,index,ilya4,index_ring,119.979718329,m,None,,,,,,"[1, 0, 1]",10,0.0,1.0,"[1, 3]",1.0,0.464289490189,1.0,85.0,10.0,5.0,,,,
96,,,1.0,p,2.0,2016_Mar_16_1147,0,baseline,ilya4,index_ring,119.979718329,m,None,,,,,,"[1, 0, 1]",10,0.0,1.0,"[1, 3]",2.0,0.264313155841,4.0,86.0,10.0,6.0,,,,
97,,,1.0,p,2.0,2016_Mar_16_1147,0,baseline,ilya4,index_ring,119.979718329,m,None,,,,,,"[1, 0, 1]",10,0.0,1.0,"[1, 3]",2.0,0.364384937156,4.0,87.0,10.0,7.0,,,,
98,,,1.0,g,1.0,2016_Mar_16_1147,0,baseline,ilya4,index_ring,119.979718329,m,None,,,,,,"[1, 0, 1]",10,0.0,1.0,"[1, 3]",1.0,0.33939544210199996,0.0,88.0,11.0,0.0,,,,
99,,,1.0,g,1.0,2016_Mar_16_1147,0,baseline,ilya4,index_ring,119.979718329,m,None,,,,,,"[1, 0, 1]",10,0.0,1.0,"[1, 3]",1.0,0.414414036144,0.0,89.0,11.0,1.0,,,,
100,,,1.0,g,1.0,2016_Mar_16_1147,i,index,ilya4,index_ring,119.979718329,m,None,,,,,,"[1, 0, 1]",10,0.0,1.0,"[1, 3]",1.0,0.5143572269569999,1.0,90.0,11.0,2.0,,,,
101,,,1.0,g,1.0,2016_Mar_16_1147,i,index,ilya4,index_ring,119.979718329,m,None,,,,,,"[1, 0, 1]",10,0.0,1.0,"[1, 3]",1.0,0.389402505532,1.0,91.0,11.0,3.0,,,,
102,,,1.0,g,1.0,2016_Mar_16_1147,m,middle,ilya4,index_ring,119.979718329,m,None,,,,,,"[1, 0, 1]",10,0.0,1.0,"[1, 3]",1.0,0.41439984884099995,2.0,92.0,11.0,4.0,,,,
103,,,1.0,g,1.0,2016_Mar_16_1147,b,ring,ilya4,index_ring,119.979718329,m,None,,,,,,"[1, 0, 1]",10,0.0,1.0,"[1, 3]",1.0,0.514389525689,3.0,93.0,11.0,5.0,,,,
104,,,1.0,p,2.0,2016_Mar_16_1147,i,index,ilya4,index_ring,119.979718329,m,None,,,,,,"[1, 0, 0]",10,0.0,1.0,"[1, 3]",2.0,0.289429732189,5.0,94.0,11.0,6.0,,,,
105,,,1.0,p,2.0,2016_Mar_16_1147,m,middle,ilya4,index_ring,119.979718329,m,None,,,,,,"[1, 0, 1]",10,0.0,1.0,"[1, 3]",2.0,-0.558200633097,6.0,95.0,11.0,7.0,,,,
106,,,1.0,g,1.0,2016_Mar_16_1147,0,baseline,ilya4,index_ring,119.979718329,m,None,,,,,,"[1, 0, 1]",10,0.0,1.0,"[1, 3]",1.0,0.28939290583099997,0.0,96.0,12.0,0.0,,,,
107,,,1.0,p,2.0,2016_Mar_16_1147,0,baseline,ilya4,index_ring,119.979718329,m,None,,,,,,"[1, 0, 1]",10,0.0,1.0,"[1, 3]",2.0,0.289325592164,4.0,97.0,12.0,1.0,,,,
108,,,1.0,p,2.0,2016_Mar_16_1147,0,baseline,ilya4,index_ring,119.979718329,m,None,,,,,,"[1, 0, 1]",10,0.0,1.0,"[1, 3]",2.0,0.389376243632,4.0,98.0,12.0,2.0,,,,
109,,,1.0,p,2.0,2016_Mar_16_1147,b,ring,ilya4,index_ring,119.979718329,m,None,,,,,,"[1, 0, 1]",10,0.0,1.0,"[1, 3]",2.0,0.41436875803400003,7.0,99.0,12.0,3.0,,,,
110,,,1.0,p,2.0,2016_Mar_16_1147,i,index,ilya4,index_ring,119.979718329,m,None,,,,,,"[1, 0, 1]",10,0.0,1.0,"[1, 3]",2.0,0.33931665733499994,5.0,100.0,12.0,4.0,,,,
111,,,0.0,g,1.0,2016_Mar_16_1147,i,index,ilya4,index_ring,119.979718329,m,None,,,,,,"[1, 0, 1]",10,0.0,1.0,"[1, 3]",2.0,0.314406248331,1.0,101.0,12.0,5.0,,,,
112,,,1.0,g,1.0,2016_Mar_16_1147,m,middle,ilya4,index_ring,119.979718329,m,None,,,,,,"[1, 0, 1]",10,0.0,1.0,"[1, 3]",1.0,0.38941246649300004,2.0,102.0,12.0,6.0,,,,
113,,,1.0,p,2.0,2016_Mar_16_1147,m,middle,ilya4,index_ring,119.979718329,m,None,,,,,,"[1, 0, 1]",10,0.0,1.0,"[1, 3]",2.0,0.48932516953,6.0,103.0,12.0,7.0,,,,
114,,,1.0,g,1.0,2016_Mar_16_1147,i,index,ilya4,index_ring,119.979718329,m,None,,,,,,"[1, 0, 1]",10,0.0,1.0,"[1, 3]",1.0,0.339400271475,1.0,104.0,13.0,0.0,,,,
115,,,0.0,g,1.0,2016_Mar_16_1147,m,middle,ilya4,index_ring,119.979718329,m,None,,,,,,"[1, 0, 1]",10,0.0,1.0,"[1, 3]",2.0,-0.135651889201,2.0,105.0,13.0,1.0,,,,
116,,,1.0,p,2.0,2016_Mar_16_1147,m,middle,ilya4,index_ring,119.979718329,m,None,,,,,,"[1, 0, 1]",10,0.0,1.0,"[1, 3]",2.0,0.339423514493,6.0,106.0,13.0,2.0,,,,
117,,,1.0,g,1.0,2016_Mar_16_1147,0,baseline,ilya4,index_ring,119.979718329,m,None,,,,,,"[1, 0, 1]",10,0.0,1.0,"[1, 3]",1.0,0.314414700083,0.0,107.0,13.0,3.0,,,,
118,,,1.0,g,1.0,2016_Mar_16_1147,i,index,ilya4,index_ring,119.979718329,m,None,,,,,,"[1, 0, 1]",10,0.0,1.0,"[1, 3]",1.0,0.414352457561,1.0,108.0,13.0,4.0,,,,
119,,,1.0,p,2.0,2016_Mar_16_1147,b,ring,ilya4,index_ring,119.979718329,m,None,,,,,,"[1, 0, 1]",10,0.0,1.0,"[1, 3]",2.0,0.36442116001599995,7.0,109.0,13.0,5.0,,,,
120,,,1.0,p,2.0,2016_Mar_16_1147,b,ring,ilya4,index_ring,119.979718329,m,None,,,,,,"[1, 0, 1]",10,0.0,1.0,"[1, 3]",2.0,0.38942152220799997,7.0,110.0,13.0,6.0,,,,
121,,,1.0,p,2.0,2016_Mar_16_1147,i,index,ilya4,index_ring,119.979718329,m,None,,,,,,"[1, 0, 1]",10,0.0,1.0,"[1, 3]",2.0,0.38942725775799997,5.0,111.0,13.0,7.0,,,,
122,,,1.0,g,1.0,2016_Mar_16_1147,m,middle,ilya4,index_ring,119.979718329,m,None,,,,,,"[1, 0, 1]",10,0.0,1.0,"[1, 3]",1.0,0.514418503325,2.0,112.0,14.0,0.0,,,,
123,,,1.0,p,2.0,2016_Mar_16_1147,i,index,ilya4,index_ring,119.979718329,m,None,,,,,,"[1, 0, 1]",10,0.0,1.0,"[1, 3]",2.0,0.489388257321,5.0,113.0,14.0,1.0,,,,
124,,,1.0,p,2.0,2016_Mar_16_1147,m,middle,ilya4,index_ring,119.979718329,m,None,,,,,,"[1, 0, 1]",10,0.0,1.0,"[1, 3]",2.0,0.414417356309,6.0,114.0,14.0,2.0,,,,
125,,,1.0,p,2.0,2016_Mar_16_1147,0,baseline,ilya4,index_ring,119.979718329,m,None,,,,,,"[1, 0, 1]",10,0.0,1.0,"[1, 3]",2.0,0.43935040483300003,4.0,115.0,14.0,3.0,,,,
126,,,1.0,p,2.0,2016_Mar_16_1147,m,middle,ilya4,index_ring,119.979718329,m,None,,,,,,"[1, 0, 1]",10,0.0,1.0,"[1, 3]",2.0,0.41438868042099997,6.0,116.0,14.0,4.0,,,,
127,,,1.0,g,1.0,2016_Mar_16_1147,b,ring,ilya4,index_ring,119.979718329,m,None,,,,,,"[1, 0, 1]",10,0.0,1.0,"[1, 3]",1.0,0.314380590394,3.0,117.0,14.0,5.0,,,,
128,,,1.0,p,2.0,2016_Mar_16_1147,i,index,ilya4,index_ring,119.979718329,m,None,,,,,,"[1, 0, 1]",10,0.0,1.0,"[1, 3]",2.0,0.364358373974,5.0,118.0,14.0,6.0,,,,
129,,,1.0,g,1.0,2016_Mar_16_1147,m,middle,ilya4,index_ring,119.979718329,m,None,,,,,,"[1, 0, 1]",10,0.0,1.0,"[1, 3]",1.0,0.389377149343,2.0,119.0,14.0,7.0,,,,
0,,,,,,2016_Mar_16_1543,,,ilya4,,119.96972527700001,m,,,,,space,99.2993393568,,13,,,,,,,,,,,,,
1,,,0.0,p,2.0,2016_Mar_16_1543,m,middle,ilya4,index_ring,119.96972527700001,m,,,,,,,"[1, 0, 1]",13,1.0,0.0,"[1, 3]",1.0,0.615596589223,,,,,6.0,0.0,0.0,0.0
2,,,1.0,g,1.0,2016_Mar_16_1543,m,middle,ilya4,index_ring,119.96972527700001,m,,,,,,,"[1, 0, 1]",13,1.0,0.0,"[1, 3]",1.0,0.41460269648599996,,,,,2.0,1.0,0.0,1.0
3,,,1.0,p,2.0,2016_Mar_16_1543,0,baseline,ilya4,index_ring,119.96972527700001,m,,,,,,,"[1, 0, 1]",13,1.0,0.0,"[1, 3]",2.0,0.5396485785580001,,,,,4.0,2.0,0.0,2.0
4,,,1.0,g,1.0,2016_Mar_16_1543,i,index,ilya4,index_ring,119.96972527700001,m,,,,,,,"[1, 0, 1]",13,1.0,0.0,"[1, 3]",1.0,0.36462068703,,,,,1.0,3.0,0.0,3.0
5,,,1.0,p,2.0,2016_Mar_16_1543,b,ring,ilya4,index_ring,119.96972527700001,m,,,,,,,"[1, 0, 1]",13,1.0,0.0,"[1, 3]",2.0,0.364624309409,,,,,7.0,4.0,0.0,4.0
6,,,1.0,g,1.0,2016_Mar_16_1543,b,ring,ilya4,index_ring,119.96972527700001,m,,,,,,,"[1, 0, 1]",13,1.0,0.0,"[1, 3]",1.0,0.38961440842600004,,,,,3.0,5.0,0.0,5.0
7,,,1.0,p,2.0,2016_Mar_16_1543,i,index,ilya4,index_ring,119.96972527700001,m,,,,,,,"[1, 0, 1]",13,1.0,0.0,"[1, 3]",2.0,0.41465733205899996,,,,,5.0,6.0,0.0,6.0
8,,,1.0,g,1.0,2016_Mar_16_1543,0,baseline,ilya4,index_ring,119.96972527700001,m,,,,,,,"[1, 0, 1]",13,1.0,0.0,"[1, 3]",1.0,0.38963312381899995,,,,,0.0,7.0,0.0,7.0
9,,,,,,2016_Mar_16_1543,,,ilya4,,119.96972527700001,m,,,space,12.9929824392,,,,13,,,,,,,,,,,,,
10,,,1.0,g,1.0,2016_Mar_16_1543,i,index,ilya4,index_ring,119.96972527700001,m,space,5.0922576217,,,,,"[1, 0, 1]",13,0.0,1.0,"[1, 3]",1.0,0.49290428223099997,1.0,0.0,0.0,0.0,,,,
11,,,1.0,p,2.0,2016_Mar_16_1543,m,middle,ilya4,index_ring,119.96972527700001,m,None,,,,,,"[1, 0, 1]",13,0.0,0.0,"[1, 3]",2.0,0.564044322409,6.0,1.0,0.0,1.0,,,,
12,,,1.0,p,2.0,2016_Mar_16_1543,m,middle,ilya4,index_ring,119.96972527700001,m,None,,,,,,"[1, 0, 1]",13,0.0,1.0,"[1, 3]",2.0,0.46437310433,6.0,2.0,0.0,2.0,,,,
13,,,1.0,g,1.0,2016_Mar_16_1543,i,index,ilya4,index_ring,119.96972527700001,m,None,,,,,,"[1, 0, 1]",13,0.0,1.0,"[1, 3]",1.0,0.5893909135459999,1.0,3.0,0.0,3.0,,,,
14,,,1.0,p,2.0,2016_Mar_16_1543,0,baseline,ilya4,index_ring,119.96972527700001,m,None,,,,,,"[1, 0, 1]",13,0.0,1.0,"[1, 3]",2.0,0.41436422947800006,4.0,4.0,0.0,4.0,,,,
15,,,1.0,p,2.0,2016_Mar_16_1543,0,baseline,ilya4,index_ring,119.96972527700001,m,None,,,,,,"[1, 0, 1]",13,0.0,1.0,"[1, 3]",2.0,0.439393871985,4.0,5.0,0.0,5.0,,,,
16,,,1.0,g,1.0,2016_Mar_16_1543,i,index,ilya4,index_ring,119.96972527700001,m,None,,,,,,"[1, 0, 1]",13,0.0,1.0,"[1, 3]",1.0,0.38937231950499995,1.0,6.0,0.0,6.0,,,,
17,,,1.0,g,1.0,2016_Mar_16_1543,b,ring,ilya4,index_ring,119.96972527700001,m,None,,,,,,"[1, 0, 1]",13,0.0,1.0,"[1, 3]",1.0,0.38935964187600003,3.0,7.0,0.0,7.0,,,,
18,,,1.0,p,2.0,2016_Mar_16_1543,b,ring,ilya4,index_ring,119.96972527700001,m,None,,,,,,"[1, 0, 1]",13,0.0,1.0,"[1, 3]",2.0,0.414408904556,7.0,8.0,1.0,0.0,,,,
19,,,1.0,g,1.0,2016_Mar_16_1543,m,middle,ilya4,index_ring,119.96972527700001,m,None,,,,,,"[1, 0, 1]",13,0.0,1.0,"[1, 3]",1.0,0.33937461353799997,2.0,9.0,1.0,1.0,,,,
20,,,1.0,p,2.0,2016_Mar_16_1543,0,baseline,ilya4,index_ring,119.96972527700001,m,None,,,,,,"[1, 0, 1]",13,0.0,1.0,"[1, 3]",2.0,0.38938711030400003,4.0,10.0,1.0,2.0,,,,
21,,,0.0,g,1.0,2016_Mar_16_1543,b,ring,ilya4,index_ring,119.96972527700001,m,None,,,,,,"[1, 0, 1]",13,0.0,1.0,"[1, 3]",2.0,0.364400029704,3.0,11.0,1.0,3.0,,,,
22,,,1.0,g,1.0,2016_Mar_16_1543,i,index,ilya4,index_ring,119.96972527700001,m,None,,,,,,"[1, 0, 1]",13,0.0,1.0,"[1, 3]",1.0,0.439415605795,1.0,12.0,1.0,4.0,,,,
23,,,1.0,p,2.0,2016_Mar_16_1543,m,middle,ilya4,index_ring,119.96972527700001,m,None,,,,,,"[1, 0, 1]",13,0.0,1.0,"[1, 3]",2.0,0.36438312619900004,6.0,13.0,1.0,5.0,,,,
24,,,1.0,p,2.0,2016_Mar_16_1543,i,index,ilya4,index_ring,119.96972527700001,m,None,,,,,,"[1, 0, 1]",13,0.0,1.0,"[1, 3]",2.0,0.33934171130900004,5.0,14.0,1.0,6.0,,,,
25,,,1.0,g,1.0,2016_Mar_16_1543,b,ring,ilya4,index_ring,119.96972527700001,m,None,,,,,,"[1, 0, 1]",13,0.0,1.0,"[1, 3]",1.0,0.464406007025,3.0,15.0,1.0,7.0,,,,
26,,,1.0,p,2.0,2016_Mar_16_1543,0,baseline,ilya4,index_ring,119.96972527700001,m,None,,,,,,"[1, 0, 1]",13,0.0,1.0,"[1, 3]",2.0,0.38943269109399997,4.0,16.0,2.0,0.0,,,,
27,,,1.0,p,2.0,2016_Mar_16_1543,i,index,ilya4,index_ring,119.96972527700001,m,None,,,,,,"[1, 0, 1]",13,0.0,1.0,"[1, 3]",2.0,0.439395079445,5.0,17.0,2.0,1.0,,,,
28,,,1.0,g,1.0,2016_Mar_16_1543,b,ring,ilya4,index_ring,119.96972527700001,m,None,,,,,,"[1, 0, 1]",13,0.0,1.0,"[1, 3]",1.0,0.439366403092,3.0,18.0,2.0,2.0,,,,
29,,,1.0,g,1.0,2016_Mar_16_1543,0,baseline,ilya4,index_ring,119.96972527700001,m,None,,,,,,"[1, 0, 1]",13,0.0,1.0,"[1, 3]",1.0,0.289383548833,0.0,19.0,2.0,3.0,,,,
30,,,1.0,g,1.0,2016_Mar_16_1543,i,index,ilya4,index_ring,119.96972527700001,m,None,,,,,,"[1, 0, 1]",13,0.0,1.0,"[1, 3]",1.0,0.489381013028,1.0,20.0,2.0,4.0,,,,
31,,,1.0,p,2.0,2016_Mar_16_1543,i,index,ilya4,index_ring,119.96972527700001,m,None,,,,,,"[1, 0, 1]",13,0.0,1.0,"[1, 3]",2.0,0.539439995829,5.0,21.0,2.0,5.0,,,,
32,,,1.0,g,1.0,2016_Mar_16_1543,0,baseline,ilya4,index_ring,119.96972527700001,m,None,,,,,,"[1, 0, 1]",13,0.0,1.0,"[1, 3]",1.0,0.38945110380599995,0.0,22.0,2.0,6.0,,,,
33,,,1.0,p,2.0,2016_Mar_16_1543,b,ring,ilya4,index_ring,119.96972527700001,m,None,,,,,,"[1, 0, 1]",13,0.0,1.0,"[1, 3]",2.0,0.289369965028,7.0,23.0,2.0,7.0,,,,
34,,,1.0,p,2.0,2016_Mar_16_1543,m,middle,ilya4,index_ring,119.96972527700001,m,None,,,,,,"[1, 0, 1]",13,0.0,1.0,"[1, 3]",2.0,0.339387291633,6.0,24.0,3.0,0.0,,,,
35,,,1.0,g,1.0,2016_Mar_16_1543,b,ring,ilya4,index_ring,119.96972527700001,m,None,,,,,,"[1, 0, 1]",13,0.0,1.0,"[1, 3]",1.0,0.514369904585,3.0,25.0,3.0,1.0,,,,
36,,,1.0,g,1.0,2016_Mar_16_1543,m,middle,ilya4,index_ring,119.96972527700001,m,None,,,,,,"[1, 0, 1]",13,0.0,1.0,"[1, 3]",1.0,0.389388318229,2.0,26.0,3.0,2.0,,,,
37,,,0.0,p,2.0,2016_Mar_16_1543,i,index,ilya4,index_ring,119.96972527700001,m,None,,,,,,"[1, 0, 1]",13,0.0,1.0,"[1, 3]",1.0,0.439412889127,5.0,27.0,3.0,3.0,,,,
38,,,1.0,g,1.0,2016_Mar_16_1543,i,index,ilya4,index_ring,119.96972527700001,m,None,,,,,,"[1, 0, 1]",13,0.0,1.0,"[1, 3]",1.0,0.439381194357,1.0,28.0,3.0,4.0,,,,
39,,,1.0,g,1.0,2016_Mar_16_1543,0,baseline,ilya4,index_ring,119.96972527700001,m,None,,,,,,"[1, 0, 1]",13,0.0,1.0,"[1, 3]",1.0,0.439381193891,0.0,29.0,3.0,5.0,,,,
40,,,1.0,g,1.0,2016_Mar_16_1543,0,baseline,ilya4,index_ring,119.96972527700001,m,None,,,,,,"[1, 0, 1]",13,0.0,1.0,"[1, 3]",1.0,0.41436573915200003,0.0,30.0,3.0,6.0,,,,
41,,,1.0,p,2.0,2016_Mar_16_1543,i,index,ilya4,index_ring,119.96972527700001,m,None,,,,,,"[1, 0, 1]",13,0.0,1.0,"[1, 3]",2.0,0.48943353636200004,5.0,31.0,3.0,7.0,,,,
42,,,1.0,g,1.0,2016_Mar_16_1543,0,baseline,ilya4,index_ring,119.96972527700001,m,None,,,,,,"[1, 0, 1]",13,0.0,1.0,"[1, 3]",1.0,0.389301081244,0.0,32.0,4.0,0.0,,,,
43,,,1.0,p,2.0,2016_Mar_16_1543,0,baseline,ilya4,index_ring,119.96972527700001,m,None,,,,,,"[1, 0, 1]",13,0.0,1.0,"[1, 3]",2.0,0.464407817982,4.0,33.0,4.0,1.0,,,,
44,,,1.0,g,1.0,2016_Mar_16_1543,m,middle,ilya4,index_ring,119.96972527700001,m,None,,,,,,"[1, 0, 1]",13,0.0,1.0,"[1, 3]",1.0,0.439408964533,2.0,34.0,4.0,2.0,,,,
45,,,1.0,g,1.0,2016_Mar_16_1543,m,middle,ilya4,index_ring,119.96972527700001,m,None,,,,,,"[1, 0, 1]",13,0.0,1.0,"[1, 3]",1.0,0.5143360966439999,2.0,35.0,4.0,3.0,,,,
46,,,1.0,p,2.0,2016_Mar_16_1543,m,middle,ilya4,index_ring,119.96972527700001,m,None,,,,,,"[1, 0, 1]",13,0.0,1.0,"[1, 3]",2.0,0.489366825726,6.0,36.0,4.0,4.0,,,,
47,,,1.0,p,2.0,2016_Mar_16_1543,b,ring,ilya4,index_ring,119.96972527700001,m,None,,,,,,"[1, 0, 1]",13,0.0,1.0,"[1, 3]",2.0,0.43936791229999994,7.0,37.0,4.0,5.0,,,,
48,,,1.0,g,1.0,2016_Mar_16_1543,i,index,ilya4,index_ring,119.96972527700001,m,None,,,,,,"[1, 0, 1]",13,0.0,1.0,"[1, 3]",1.0,0.464360727984,1.0,38.0,4.0,6.0,,,,
49,,,1.0,g,1.0,2016_Mar_16_1543,0,baseline,ilya4,index_ring,119.96972527700001,m,None,,,,,,"[1, 0, 1]",13,0.0,1.0,"[1, 3]",1.0,0.439408361036,0.0,39.0,4.0,7.0,,,,
50,,,1.0,g,1.0,2016_Mar_16_1543,b,ring,ilya4,index_ring,119.96972527700001,m,None,,,,,,"[1, 0, 1]",13,0.0,1.0,"[1, 3]",1.0,0.414385058042,3.0,40.0,5.0,0.0,,,,
51,,,1.0,p,2.0,2016_Mar_16_1543,b,ring,ilya4,index_ring,119.96972527700001,m,None,,,,,,"[1, 0, 1]",13,0.0,0.0,"[1, 3]",2.0,0.439330180231,7.0,41.0,5.0,1.0,,,,
52,,,1.0,p,2.0,2016_Mar_16_1543,b,ring,ilya4,index_ring,119.96972527700001,m,None,,,,,,"[1, 0, 1]",13,0.0,1.0,"[1, 3]",2.0,0.43941168166699995,7.0,42.0,5.0,2.0,,,,
53,,,1.0,p,2.0,2016_Mar_16_1543,m,middle,ilya4,index_ring,119.96972527700001,m,None,,,,,,"[1, 0, 1]",13,0.0,1.0,"[1, 3]",2.0,0.439404436909,6.0,43.0,5.0,3.0,,,,
54,,,1.0,p,2.0,2016_Mar_16_1543,i,index,ilya4,index_ring,119.96972527700001,m,None,,,,,,"[1, 0, 1]",13,0.0,1.0,"[1, 3]",2.0,0.46433386305299995,5.0,44.0,5.0,4.0,,,,
55,,,1.0,g,1.0,2016_Mar_16_1543,m,middle,ilya4,index_ring,119.96972527700001,m,None,,,,,,"[1, 0, 1]",13,0.0,1.0,"[1, 3]",1.0,0.389353302829,2.0,45.0,5.0,5.0,,,,
56,,,1.0,p,2.0,2016_Mar_16_1543,0,baseline,ilya4,index_ring,119.96972527700001,m,None,,,,,,"[1, 0, 1]",13,0.0,1.0,"[1, 3]",2.0,0.414377209786,4.0,46.0,5.0,6.0,,,,
57,,,1.0,g,1.0,2016_Mar_16_1543,b,ring,ilya4,index_ring,119.96972527700001,m,None,,,,,,"[1, 0, 1]",13,0.0,1.0,"[1, 3]",1.0,0.46430126257200005,3.0,47.0,5.0,7.0,,,,
58,,,1.0,g,1.0,2016_Mar_16_1543,b,ring,ilya4,index_ring,119.96972527700001,m,None,,,,,,"[1, 0, 1]",13,0.0,1.0,"[1, 3]",1.0,0.539413734395,3.0,48.0,6.0,0.0,,,,
59,,,1.0,p,2.0,2016_Mar_16_1543,b,ring,ilya4,index_ring,119.96972527700001,m,None,,,,,,"[1, 0, 1]",13,0.0,1.0,"[1, 3]",2.0,0.589315751623,7.0,49.0,6.0,1.0,,,,
60,,,1.0,g,1.0,2016_Mar_16_1543,0,baseline,ilya4,index_ring,119.96972527700001,m,None,,,,,,"[1, 0, 1]",13,0.0,1.0,"[1, 3]",1.0,1.57285521278,0.0,50.0,6.0,2.0,,,,
61,,,1.0,g,1.0,2016_Mar_16_1543,0,baseline,ilya4,index_ring,119.96972527700001,m,None,,,,,,"[1, 0, 1]",13,0.0,1.0,"[1, 3]",1.0,0.689404436909,0.0,51.0,6.0,3.0,,,,
62,,,0.0,g,1.0,2016_Mar_16_1543,0,baseline,ilya4,index_ring,119.96972527700001,m,None,,,,,,"[1, 0, 1]",13,0.0,1.0,"[1, 3]",2.0,0.289411017727,0.0,52.0,6.0,4.0,,,,
63,,,1.0,p,2.0,2016_Mar_16_1543,0,baseline,ilya4,index_ring,119.96972527700001,m,None,,,,,,"[1, 0, 1]",13,0.0,1.0,"[1, 3]",2.0,0.41439894313000003,4.0,53.0,6.0,5.0,,,,
64,,,1.0,g,1.0,2016_Mar_16_1543,0,baseline,ilya4,index_ring,119.96972527700001,m,None,,,,,,"[1, 0, 1]",13,0.0,1.0,"[1, 3]",1.0,0.31441319087499997,0.0,54.0,6.0,6.0,,,,
65,,,1.0,g,1.0,2016_Mar_16_1543,b,ring,ilya4,index_ring,119.96972527700001,m,None,,,,,,"[1, 0, 1]",13,0.0,1.0,"[1, 3]",1.0,0.33938336750500003,3.0,55.0,6.0,7.0,,,,
66,,,1.0,p,2.0,2016_Mar_16_1543,b,ring,ilya4,index_ring,119.96972527700001,m,None,,,,,,"[1, 0, 1]",13,0.0,1.0,"[1, 3]",2.0,0.31438360881099997,7.0,56.0,7.0,0.0,,,,
67,,,1.0,p,2.0,2016_Mar_16_1543,m,middle,ilya4,index_ring,119.96972527700001,m,None,,,,,,"[1, 0, 1]",13,0.0,1.0,"[1, 3]",2.0,0.43944941327,6.0,57.0,7.0,1.0,,,,
68,,,1.0,g,1.0,2016_Mar_16_1543,i,index,ilya4,index_ring,119.96972527700001,m,None,,,,,,"[1, 0, 1]",13,0.0,1.0,"[1, 3]",1.0,0.36437256081,1.0,58.0,7.0,2.0,,,,
69,,,1.0,p,2.0,2016_Mar_16_1543,m,middle,ilya4,index_ring,119.96972527700001,m,None,,,,,,"[1, 0, 1]",13,0.0,1.0,"[1, 3]",2.0,0.564415304046,6.0,59.0,7.0,3.0,,,,
70,,,1.0,p,2.0,2016_Mar_16_1543,i,index,ilya4,index_ring,119.96972527700001,m,None,,,,,,"[1, 0, 1]",13,0.0,1.0,"[1, 3]",2.0,0.464363746867,5.0,60.0,7.0,4.0,,,,
71,,,1.0,p,2.0,2016_Mar_16_1543,0,baseline,ilya4,index_ring,119.96972527700001,m,None,,,,,,"[1, 0, 1]",13,0.0,1.0,"[1, 3]",2.0,0.389360244907,4.0,61.0,7.0,5.0,,,,
72,,,1.0,g,1.0,2016_Mar_16_1543,i,index,ilya4,index_ring,119.96972527700001,m,None,,,,,,"[1, 0, 1]",13,0.0,1.0,"[1, 3]",1.0,0.414377813283,1.0,62.0,7.0,6.0,,,,
73,,,1.0,g,1.0,2016_Mar_16_1543,i,index,ilya4,index_ring,119.96972527700001,m,None,,,,,,"[1, 0, 1]",13,0.0,1.0,"[1, 3]",1.0,0.46437189686999997,1.0,63.0,7.0,7.0,,,,
74,,,1.0,g,1.0,2016_Mar_16_1543,m,middle,ilya4,index_ring,119.96972527700001,m,None,,,,,,"[1, 0, 1]",13,0.0,1.0,"[1, 3]",1.0,0.5143599436249999,2.0,64.0,8.0,0.0,,,,
75,,,1.0,p,2.0,2016_Mar_16_1543,b,ring,ilya4,index_ring,119.96972527700001,m,None,,,,,,"[1, 0, 1]",13,0.0,1.0,"[1, 3]",2.0,0.414395622965,7.0,65.0,8.0,1.0,,,,
76,,,1.0,p,2.0,2016_Mar_16_1543,i,index,ilya4,index_ring,119.96972527700001,m,None,,,,,,"[1, 0, 1]",13,0.0,1.0,"[1, 3]",2.0,0.689470543582,5.0,66.0,8.0,2.0,,,,
77,,,1.0,g,1.0,2016_Mar_16_1543,b,ring,ilya4,index_ring,119.96972527700001,m,None,,,,,,"[1, 0, 1]",13,0.0,1.0,"[1, 3]",1.0,0.414414941389,3.0,67.0,8.0,3.0,,,,
78,,,1.0,p,2.0,2016_Mar_16_1543,b,ring,ilya4,index_ring,119.96972527700001,m,None,,,,,,"[1, 0, 1]",13,0.0,1.0,"[1, 3]",2.0,0.389429369997,7.0,68.0,8.0,4.0,,,,
79,,,1.0,p,2.0,2016_Mar_16_1543,m,middle,ilya4,index_ring,119.96972527700001,m,None,,,,,,"[1, 0, 1]",13,0.0,1.0,"[1, 3]",2.0,0.439406247865,6.0,69.0,8.0,5.0,,,,
80,,,1.0,p,2.0,2016_Mar_16_1543,i,index,ilya4,index_ring,119.96972527700001,m,None,,,,,,"[1, 0, 1]",13,0.0,1.0,"[1, 3]",2.0,0.5143545102889999,5.0,70.0,8.0,6.0,,,,
81,,,1.0,g,1.0,2016_Mar_16_1543,i,index,ilya4,index_ring,119.96972527700001,m,None,,,,,,"[1, 0, 1]",13,0.0,1.0,"[1, 3]",1.0,0.53938415233,1.0,71.0,8.0,7.0,,,,
82,,,1.0,p,2.0,2016_Mar_16_1543,0,baseline,ilya4,index_ring,119.96972527700001,m,None,,,,,,"[1, 0, 1]",13,0.0,1.0,"[1, 3]",2.0,0.43941047420699997,4.0,72.0,9.0,0.0,,,,
83,,,1.0,g,1.0,2016_Mar_16_1543,i,index,ilya4,index_ring,119.96972527700001,m,None,,,,,,"[1, 0, 1]",13,0.0,1.0,"[1, 3]",1.0,0.389329757597,1.0,73.0,9.0,1.0,,,,
84,,,1.0,p,2.0,2016_Mar_16_1543,m,middle,ilya4,index_ring,119.96972527700001,m,None,,,,,,"[1, 0, 1]",13,0.0,1.0,"[1, 3]",2.0,0.41442490281499994,6.0,74.0,9.0,2.0,,,,
85,,,1.0,g,1.0,2016_Mar_16_1543,b,ring,ilya4,index_ring,119.96972527700001,m,None,,,,,,"[1, 0, 1]",13,0.0,1.0,"[1, 3]",1.0,0.36438705032700003,3.0,75.0,9.0,3.0,,,,
86,,,1.0,g,1.0,2016_Mar_16_1543,m,middle,ilya4,index_ring,119.96972527700001,m,None,,,,,,"[1, 0, 1]",13,0.0,1.0,"[1, 3]",1.0,0.489386144616,2.0,76.0,9.0,4.0,,,,
87,,,1.0,p,2.0,2016_Mar_16_1543,b,ring,ilya4,index_ring,119.96972527700001,m,None,,,,,,"[1, 0, 1]",13,0.0,1.0,"[1, 3]",2.0,0.464453700054,7.0,77.0,9.0,5.0,,,,
88,,,1.0,g,1.0,2016_Mar_16_1543,0,baseline,ilya4,index_ring,119.96972527700001,m,None,,,,,,"[1, 0, 1]",13,0.0,1.0,"[1, 3]",1.0,0.38940974982500004,0.0,78.0,9.0,6.0,,,,
89,,,0.0,p,2.0,2016_Mar_16_1543,i,index,ilya4,index_ring,119.96972527700001,m,None,,,,,,"[1, 0, 1]",13,0.0,1.0,"[1, 3]",1.0,0.489307963811,5.0,79.0,9.0,7.0,,,,
90,,,1.0,p,2.0,2016_Mar_16_1543,0,baseline,ilya4,index_ring,119.96972527700001,m,None,,,,,,"[1, 0, 1]",13,0.0,1.0,"[1, 3]",2.0,0.38934968045,4.0,80.0,10.0,0.0,,,,
91,,,1.0,p,2.0,2016_Mar_16_1543,i,index,ilya4,index_ring,119.96972527700001,m,None,,,,,,"[1, 0, 1]",13,0.0,0.0,"[1, 3]",2.0,0.439436735641,5.0,81.0,10.0,1.0,,,,
92,,,1.0,g,1.0,2016_Mar_16_1543,i,index,ilya4,index_ring,119.96972527700001,m,None,,,,,,"[1, 0, 1]",13,0.0,1.0,"[1, 3]",1.0,0.389376545846,1.0,82.0,10.0,2.0,,,,
93,,,1.0,g,1.0,2016_Mar_16_1543,m,middle,ilya4,index_ring,119.96972527700001,m,None,,,,,,"[1, 0, 1]",13,0.0,1.0,"[1, 3]",1.0,0.664400754552,2.0,83.0,10.0,3.0,,,,
94,,,1.0,p,2.0,2016_Mar_16_1543,0,baseline,ilya4,index_ring,119.96972527700001,m,None,,,,,,"[1, 0, 1]",13,0.0,1.0,"[1, 3]",2.0,0.6644318453600001,4.0,84.0,10.0,4.0,,,,
95,,,1.0,p,2.0,2016_Mar_16_1543,0,baseline,ilya4,index_ring,119.96972527700001,m,None,,,,,,"[1, 0, 1]",13,0.0,1.0,"[1, 3]",2.0,0.489274759367,4.0,85.0,10.0,5.0,,,,
96,,,1.0,g,1.0,2016_Mar_16_1543,m,middle,ilya4,index_ring,119.96972527700001,m,None,,,,,,"[1, 0, 1]",13,0.0,1.0,"[1, 3]",1.0,0.38935450982299996,2.0,86.0,10.0,6.0,,,,
97,,,1.0,p,2.0,2016_Mar_16_1543,b,ring,ilya4,index_ring,119.96972527700001,m,None,,,,,,"[1, 0, 1]",13,0.0,1.0,"[1, 3]",2.0,0.514415484909,7.0,87.0,10.0,7.0,,,,
98,,,1.0,p,2.0,2016_Mar_16_1543,0,baseline,ilya4,index_ring,119.96972527700001,m,None,,,,,,"[1, 0, 1]",13,0.0,1.0,"[1, 3]",2.0,0.714380650837,4.0,88.0,11.0,0.0,,,,
99,,,0.0,g,1.0,2016_Mar_16_1543,i,index,ilya4,index_ring,119.96972527700001,m,None,,,,,,"[1, 0, 1]",13,0.0,1.0,"[1, 3]",2.0,0.38938892172600004,1.0,89.0,11.0,1.0,,,,
100,,,1.0,p,2.0,2016_Mar_16_1543,m,middle,ilya4,index_ring,119.96972527700001,m,None,,,,,,"[1, 0, 1]",13,0.0,1.0,"[1, 3]",2.0,0.514435105547,6.0,90.0,11.0,2.0,,,,
101,,,1.0,p,2.0,2016_Mar_16_1543,i,index,ilya4,index_ring,119.96972527700001,m,None,,,,,,"[1, 0, 1]",13,0.0,1.0,"[1, 3]",2.0,0.68927946832,5.0,91.0,11.0,3.0,,,,
102,,,1.0,g,1.0,2016_Mar_16_1543,i,index,ilya4,index_ring,119.96972527700001,m,None,,,,,,"[1, 0, 1]",13,0.0,1.0,"[1, 3]",1.0,0.589390008301,1.0,92.0,11.0,4.0,,,,
103,,,1.0,g,1.0,2016_Mar_16_1543,b,ring,ilya4,index_ring,119.96972527700001,m,None,,,,,,"[1, 0, 1]",13,0.0,1.0,"[1, 3]",1.0,0.36437557922700003,3.0,93.0,11.0,5.0,,,,
104,,,1.0,p,2.0,2016_Mar_16_1543,m,middle,ilya4,index_ring,119.96972527700001,m,None,,,,,,"[1, 0, 1]",13,0.0,1.0,"[1, 3]",2.0,0.289424299318,6.0,94.0,11.0,6.0,,,,
105,,,1.0,g,1.0,2016_Mar_16_1543,m,middle,ilya4,index_ring,119.96972527700001,m,None,,,,,,"[1, 0, 1]",13,0.0,1.0,"[1, 3]",1.0,0.364405765254,2.0,95.0,11.0,7.0,,,,
106,,,1.0,g,1.0,2016_Mar_16_1543,m,middle,ilya4,index_ring,119.96972527700001,m,None,,,,,,"[1, 0, 1]",13,0.0,1.0,"[1, 3]",1.0,0.439361573718,2.0,96.0,12.0,0.0,,,,
107,,,1.0,p,2.0,2016_Mar_16_1543,b,ring,ilya4,index_ring,119.96972527700001,m,None,,,,,,"[1, 0, 1]",13,0.0,1.0,"[1, 3]",2.0,0.414387472961,7.0,97.0,12.0,1.0,,,,
108,,,1.0,p,2.0,2016_Mar_16_1543,0,baseline,ilya4,index_ring,119.96972527700001,m,None,,,,,,"[1, 0, 1]",13,0.0,1.0,"[1, 3]",2.0,0.414385057576,4.0,98.0,12.0,2.0,,,,
109,,,1.0,g,1.0,2016_Mar_16_1543,m,middle,ilya4,index_ring,119.96972527700001,m,None,,,,,,"[1, 0, 1]",13,0.0,1.0,"[1, 3]",1.0,0.539369361531,2.0,99.0,12.0,3.0,,,,
110,,,1.0,g,1.0,2016_Mar_16_1543,b,ring,ilya4,index_ring,119.96972527700001,m,None,,,,,,"[1, 0, 1]",13,0.0,1.0,"[1, 3]",1.0,0.414370266777,3.0,100.0,12.0,4.0,,,,
111,,,1.0,g,1.0,2016_Mar_16_1543,0,baseline,ilya4,index_ring,119.96972527700001,m,None,,,,,,"[1, 0, 1]",13,0.0,1.0,"[1, 3]",1.0,0.43937213864200003,0.0,101.0,12.0,5.0,,,,
112,,,1.0,p,2.0,2016_Mar_16_1543,m,middle,ilya4,index_ring,119.96972527700001,m,None,,,,,,"[1, 0, 1]",13,0.0,1.0,"[1, 3]",2.0,0.41438445454499995,6.0,102.0,12.0,6.0,,,,
113,,,1.0,p,2.0,2016_Mar_16_1543,b,ring,ilya4,index_ring,119.96972527700001,m,None,,,,,,"[1, 0, 1]",13,0.0,1.0,"[1, 3]",2.0,0.489351430964,7.0,103.0,12.0,7.0,,,,
114,,,1.0,p,2.0,2016_Mar_16_1543,m,middle,ilya4,index_ring,119.96972527700001,m,None,,,,,,"[1, 0, 1]",13,0.0,1.0,"[1, 3]",2.0,0.439425566755,6.0,104.0,13.0,0.0,,,,
115,,,1.0,p,2.0,2016_Mar_16_1543,i,index,ilya4,index_ring,119.96972527700001,m,None,,,,,,"[1, 0, 1]",13,0.0,1.0,"[1, 3]",2.0,0.5644297930969999,5.0,105.0,13.0,1.0,,,,
116,,,1.0,p,2.0,2016_Mar_16_1543,i,index,ilya4,index_ring,119.96972527700001,m,None,,,,,,"[1, 0, 1]",13,0.0,1.0,"[1, 3]",2.0,0.489366523512,5.0,106.0,13.0,2.0,,,,
117,,,1.0,g,1.0,2016_Mar_16_1543,m,middle,ilya4,index_ring,119.96972527700001,m,None,,,,,,"[1, 0, 1]",13,0.0,1.0,"[1, 3]",1.0,0.414363927729,2.0,107.0,13.0,3.0,,,,
118,,,1.0,g,1.0,2016_Mar_16_1543,m,middle,ilya4,index_ring,119.96972527700001,m,None,,,,,,"[1, 0, 1]",13,0.0,1.0,"[1, 3]",1.0,0.41438385011600004,2.0,108.0,13.0,4.0,,,,
119,,,1.0,g,1.0,2016_Mar_16_1543,b,ring,ilya4,index_ring,119.96972527700001,m,None,,,,,,"[1, 0, 1]",13,0.0,1.0,"[1, 3]",1.0,0.539358192645,3.0,109.0,13.0,5.0,,,,
120,,,1.0,g,1.0,2016_Mar_16_1543,0,baseline,ilya4,index_ring,119.96972527700001,m,None,,,,,,"[1, 0, 1]",13,0.0,1.0,"[1, 3]",1.0,0.514413673952,0.0,110.0,13.0,6.0,,,,
121,,,1.0,g,1.0,2016_Mar_16_1543,m,middle,ilya4,index_ring,119.96972527700001,m,None,,,,,,"[1, 0, 1]",13,0.0,1.0,"[1, 3]",1.0,0.46437129337300004,2.0,111.0,13.0,7.0,,,,
122,,,1.0,p,2.0,2016_Mar_16_1543,0,baseline,ilya4,index_ring,119.96972527700001,m,None,,,,,,"[1, 0, 1]",13,0.0,1.0,"[1, 3]",2.0,0.489346299376,4.0,112.0,14.0,0.0,,,,
123,,,1.0,g,1.0,2016_Mar_16_1543,0,baseline,ilya4,index_ring,119.96972527700001,m,None,,,,,,"[1, 0, 1]",13,0.0,1.0,"[1, 3]",1.0,0.664392905831,0.0,113.0,14.0,1.0,,,,
124,,,1.0,p,2.0,2016_Mar_16_1543,b,ring,ilya4,index_ring,119.96972527700001,m,None,,,,,,"[1, 0, 1]",13,0.0,1.0,"[1, 3]",2.0,0.43938934436099997,7.0,114.0,14.0,2.0,,,,
125,,,1.0,p,2.0,2016_Mar_16_1543,b,ring,ilya4,index_ring,119.96972527700001,m,None,,,,,,"[1, 0, 1]",13,0.0,1.0,"[1, 3]",2.0,0.48938010731700005,7.0,115.0,14.0,3.0,,,,
126,,,1.0,p,2.0,2016_Mar_16_1543,m,middle,ilya4,index_ring,119.96972527700001,m,None,,,,,,"[1, 0, 1]",13,0.0,1.0,"[1, 3]",2.0,0.614413010012,6.0,116.0,14.0,4.0,,,,
127,,,1.0,g,1.0,2016_Mar_16_1543,b,ring,ilya4,index_ring,119.96972527700001,m,None,,,,,,"[1, 0, 1]",13,0.0,1.0,"[1, 3]",1.0,0.46439061179799995,3.0,117.0,14.0,5.0,,,,
128,,,1.0,p,2.0,2016_Mar_16_1543,i,index,ilya4,index_ring,119.96972527700001,m,None,,,,,,"[1, 0, 1]",13,0.0,1.0,"[1, 3]",2.0,0.5144015993550001,5.0,118.0,14.0,6.0,,,,
129,,,1.0,g,1.0,2016_Mar_16_1543,0,baseline,ilya4,index_ring,119.96972527700001,m,None,,,,,,"[1, 0, 1]",13,0.0,1.0,"[1, 3]",1.0,0.464362841621,0.0,119.0,14.0,7.0,,,,
0,,,,,,2016_Mar_16_1550,,,ilya4,,119.999022119,m,,,,,space,89.7713749534,,14,,,,,,,,,,,,,
1,,,1.0,g,1.0,2016_Mar_16_1550,b,ring,ilya4,index_ring,119.999022119,m,,,,,,,"[1, 0, 1]",14,1.0,0.0,"[1, 3]",1.0,0.9992655413779999,,,,,3.0,0.0,0.0,0.0
2,,,1.0,g,1.0,2016_Mar_16_1550,i,index,ilya4,index_ring,119.999022119,m,,,,,,,"[1, 0, 1]",14,1.0,0.0,"[1, 3]",1.0,0.489696319737,,,,,1.0,1.0,0.0,1.0
3,,,1.0,p,2.0,2016_Mar_16_1550,0,baseline,ilya4,index_ring,119.999022119,m,,,,,,,"[1, 0, 1]",14,1.0,0.0,"[1, 3]",2.0,0.339693044368,,,,,4.0,2.0,0.0,2.0
4,,,1.0,g,1.0,2016_Mar_16_1550,m,middle,ilya4,index_ring,119.999022119,m,,,,,,,"[1, 0, 1]",14,1.0,0.0,"[1, 3]",1.0,0.38968518149099995,,,,,2.0,3.0,0.0,3.0
5,,,1.0,p,2.0,2016_Mar_16_1550,m,middle,ilya4,index_ring,119.999022119,m,,,,,,,"[1, 0, 1]",14,1.0,0.0,"[1, 3]",2.0,0.289677665159,,,,,6.0,4.0,0.0,4.0
6,,,1.0,p,2.0,2016_Mar_16_1550,i,index,ilya4,index_ring,119.999022119,m,,,,,,,"[1, 0, 1]",14,1.0,0.0,"[1, 3]",2.0,0.364676585943,,,,,5.0,5.0,0.0,5.0
7,,,1.0,p,2.0,2016_Mar_16_1550,b,ring,ilya4,index_ring,119.999022119,m,,,,,,,"[1, 0, 1]",14,1.0,0.0,"[1, 3]",2.0,0.414641254172,,,,,7.0,6.0,0.0,6.0
8,,,1.0,g,1.0,2016_Mar_16_1550,0,baseline,ilya4,index_ring,119.999022119,m,,,,,,,"[1, 0, 1]",14,1.0,0.0,"[1, 3]",1.0,0.264751475826,,,,,0.0,7.0,0.0,7.0
9,,,,,,2016_Mar_16_1550,,,ilya4,,119.999022119,m,,,space,10.275639696499999,,,,14,,,,,,,,,,,,,
10,,,1.0,p,2.0,2016_Mar_16_1550,b,ring,ilya4,index_ring,119.999022119,m,space,3.4085100465499996,,,,,"[1, 0, 1]",14,0.0,1.0,"[1, 3]",2.0,0.461415628493,7.0,0.0,0.0,0.0,,,,
11,,,1.0,g,1.0,2016_Mar_16_1550,m,middle,ilya4,index_ring,119.999022119,m,None,,,,,,"[1, 0, 1]",14,0.0,0.0,"[1, 3]",1.0,0.389050382711,2.0,1.0,0.0,1.0,,,,
12,,,1.0,g,1.0,2016_Mar_16_1550,0,baseline,ilya4,index_ring,119.999022119,m,None,,,,,,"[1, 0, 1]",14,0.0,1.0,"[1, 3]",1.0,0.414385885987,0.0,2.0,0.0,2.0,,,,
13,,,1.0,g,1.0,2016_Mar_16_1550,0,baseline,ilya4,index_ring,119.999022119,m,None,,,,,,"[1, 0, 1]",14,0.0,1.0,"[1, 3]",1.0,0.33943526173,0.0,3.0,0.0,3.0,,,,
14,,,1.0,g,1.0,2016_Mar_16_1550,0,baseline,ilya4,index_ring,119.999022119,m,None,,,,,,"[1, 0, 1]",14,0.0,1.0,"[1, 3]",1.0,0.314406442046,0.0,4.0,0.0,4.0,,,,
15,,,1.0,p,2.0,2016_Mar_16_1550,i,index,ilya4,index_ring,119.999022119,m,None,,,,,,"[1, 0, 1]",14,0.0,1.0,"[1, 3]",2.0,0.289438294768,5.0,5.0,0.0,5.0,,,,
16,,,0.0,p,2.0,2016_Mar_16_1550,m,middle,ilya4,index_ring,119.999022119,m,None,,,,,,"[1, 0, 1]",14,0.0,1.0,"[1, 3]",1.0,0.314419119675,6.0,6.0,0.0,6.0,,,,
17,,,1.0,g,1.0,2016_Mar_16_1550,m,middle,ilya4,index_ring,119.999022119,m,None,,,,,,"[1, 0, 1]",14,0.0,1.0,"[1, 3]",1.0,0.43944398505599996,2.0,7.0,0.0,7.0,,,,
18,,,1.0,p,2.0,2016_Mar_16_1550,i,index,ilya4,index_ring,119.999022119,m,None,,,,,,"[1, 0, 1]",14,0.0,1.0,"[1, 3]",2.0,0.26440645713399996,5.0,8.0,1.0,0.0,,,,
19,,,1.0,g,1.0,2016_Mar_16_1550,b,ring,ilya4,index_ring,119.999022119,m,None,,,,,,"[1, 0, 1]",14,0.0,1.0,"[1, 3]",1.0,0.439464511406,3.0,9.0,1.0,1.0,,,,
20,,,1.0,p,2.0,2016_Mar_16_1550,i,index,ilya4,index_ring,119.999022119,m,None,,,,,,"[1, 0, 1]",14,0.0,1.0,"[1, 3]",2.0,0.289465764128,5.0,10.0,1.0,2.0,,,,
21,,,1.0,g,1.0,2016_Mar_16_1550,0,baseline,ilya4,index_ring,119.999022119,m,None,,,,,,"[1, 0, 1]",14,0.0,1.0,"[1, 3]",1.0,0.364431782681,0.0,11.0,1.0,3.0,,,,
22,,,1.0,g,1.0,2016_Mar_16_1550,0,baseline,ilya4,index_ring,119.999022119,m,None,,,,,,"[1, 0, 1]",14,0.0,1.0,"[1, 3]",1.0,0.364444158562,0.0,12.0,1.0,4.0,,,,
23,,,1.0,g,1.0,2016_Mar_16_1550,0,baseline,ilya4,index_ring,119.999022119,m,None,,,,,,"[1, 0, 1]",14,0.0,1.0,"[1, 3]",1.0,0.339413830135,0.0,13.0,1.0,5.0,,,,
24,,,1.0,p,2.0,2016_Mar_16_1550,i,index,ilya4,index_ring,119.999022119,m,None,,,,,,"[1, 0, 1]",14,0.0,1.0,"[1, 3]",2.0,0.264431812856,5.0,14.0,1.0,6.0,,,,
25,,,1.0,p,2.0,2016_Mar_16_1550,i,index,ilya4,index_ring,119.999022119,m,None,,,,,,"[1, 0, 1]",14,0.0,1.0,"[1, 3]",2.0,0.33942258363600003,5.0,15.0,1.0,7.0,,,,
26,,,0.0,g,1.0,2016_Mar_16_1550,0,baseline,ilya4,index_ring,119.999022119,m,None,,,,,,"[1, 0, 1]",14,0.0,1.0,"[1, 3]",2.0,0.33940386870899997,0.0,16.0,2.0,0.0,,,,
27,,,1.0,p,2.0,2016_Mar_16_1550,0,baseline,ilya4,index_ring,119.999022119,m,None,,,,,,"[1, 0, 1]",14,0.0,1.0,"[1, 3]",2.0,0.314427270144,4.0,17.0,2.0,1.0,,,,
28,,,1.0,p,2.0,2016_Mar_16_1550,i,index,ilya4,index_ring,119.999022119,m,None,,,,,,"[1, 0, 1]",14,0.0,1.0,"[1, 3]",2.0,0.36428296850999997,5.0,18.0,2.0,2.0,,,,
29,,,0.0,g,1.0,2016_Mar_16_1550,0,baseline,ilya4,index_ring,119.999022119,m,None,,,,,,"[1, 0, 1]",14,0.0,1.0,"[1, 3]",2.0,0.38944098172700004,0.0,19.0,2.0,3.0,,,,
30,,,1.0,g,1.0,2016_Mar_16_1550,0,baseline,ilya4,index_ring,119.999022119,m,None,,,,,,"[1, 0, 1]",14,0.0,1.0,"[1, 3]",1.0,0.41445380315200003,0.0,20.0,2.0,4.0,,,,
31,,,1.0,p,2.0,2016_Mar_16_1550,i,index,ilya4,index_ring,119.999022119,m,None,,,,,,"[1, 0, 1]",14,0.0,1.0,"[1, 3]",2.0,0.289384866655,5.0,21.0,2.0,5.0,,,,
32,,,1.0,g,1.0,2016_Mar_16_1550,m,middle,ilya4,index_ring,119.999022119,m,None,,,,,,"[1, 0, 1]",14,0.0,1.0,"[1, 3]",1.0,0.31441066838799997,2.0,22.0,2.0,6.0,,,,
33,,,1.0,g,1.0,2016_Mar_16_1550,b,ring,ilya4,index_ring,119.999022119,m,None,,,,,,"[1, 0, 1]",14,0.0,1.0,"[1, 3]",1.0,0.464425413925,3.0,23.0,2.0,7.0,,,,
34,,,1.0,g,1.0,2016_Mar_16_1550,i,index,ilya4,index_ring,119.999022119,m,None,,,,,,"[1, 0, 1]",14,0.0,1.0,"[1, 3]",1.0,0.41442210838200005,1.0,24.0,3.0,0.0,,,,
35,,,1.0,g,1.0,2016_Mar_16_1550,b,ring,ilya4,index_ring,119.999022119,m,None,,,,,,"[1, 0, 1]",14,0.0,1.0,"[1, 3]",1.0,0.364402502831,3.0,25.0,3.0,1.0,,,,
36,,,1.0,g,1.0,2016_Mar_16_1550,b,ring,ilya4,index_ring,119.999022119,m,None,,,,,,"[1, 0, 1]",14,0.0,1.0,"[1, 3]",1.0,0.38941592775300005,3.0,26.0,3.0,2.0,,,,
37,,,1.0,g,1.0,2016_Mar_16_1550,m,middle,ilya4,index_ring,119.999022119,m,None,,,,,,"[1, 0, 1]",14,0.0,1.0,"[1, 3]",1.0,0.314449003488,2.0,27.0,3.0,3.0,,,,
38,,,0.0,p,2.0,2016_Mar_16_1550,i,index,ilya4,index_ring,119.999022119,m,None,,,,,,"[1, 0, 1]",14,0.0,1.0,"[1, 3]",1.0,0.31440432887499997,5.0,28.0,3.0,4.0,,,,
39,,,1.0,p,2.0,2016_Mar_16_1550,m,middle,ilya4,index_ring,119.999022119,m,None,,,,,,"[1, 0, 1]",14,0.0,1.0,"[1, 3]",2.0,0.389388458859,6.0,29.0,3.0,5.0,,,,
40,,,1.0,g,1.0,2016_Mar_16_1550,i,index,ilya4,index_ring,119.999022119,m,None,,,,,,"[1, 0, 1]",14,0.0,1.0,"[1, 3]",1.0,0.414435389508,1.0,30.0,3.0,6.0,,,,
41,,,1.0,g,1.0,2016_Mar_16_1550,0,baseline,ilya4,index_ring,119.999022119,m,None,,,,,,"[1, 0, 1]",14,0.0,1.0,"[1, 3]",1.0,0.339439185858,0.0,31.0,3.0,7.0,,,,
42,,,1.0,p,2.0,2016_Mar_16_1550,0,baseline,ilya4,index_ring,119.999022119,m,None,,,,,,"[1, 0, 1]",14,0.0,1.0,"[1, 3]",2.0,0.43940142361400003,4.0,32.0,4.0,0.0,,,,
43,,,1.0,g,1.0,2016_Mar_16_1550,m,middle,ilya4,index_ring,119.999022119,m,None,,,,,,"[1, 0, 1]",14,0.0,1.0,"[1, 3]",1.0,0.439427685048,2.0,33.0,4.0,1.0,,,,
44,,,1.0,p,2.0,2016_Mar_16_1550,m,middle,ilya4,index_ring,119.999022119,m,None,,,,,,"[1, 0, 1]",14,0.0,1.0,"[1, 3]",2.0,0.314407649506,6.0,34.0,4.0,2.0,,,,
45,,,1.0,g,1.0,2016_Mar_16_1550,b,ring,ilya4,index_ring,119.999022119,m,None,,,,,,"[1, 0, 1]",14,0.0,1.0,"[1, 3]",1.0,0.339462730158,3.0,35.0,4.0,3.0,,,,
46,,,1.0,g,1.0,2016_Mar_16_1550,b,ring,ilya4,index_ring,119.999022119,m,None,,,,,,"[1, 0, 1]",14,0.0,1.0,"[1, 3]",1.0,0.28943014523000005,3.0,36.0,4.0,4.0,,,,
47,,,1.0,p,2.0,2016_Mar_16_1550,i,index,ilya4,index_ring,119.999022119,m,None,,,,,,"[1, 0, 1]",14,0.0,1.0,"[1, 3]",2.0,0.38941773871,5.0,37.0,4.0,5.0,,,,
48,,,1.0,g,1.0,2016_Mar_16_1550,m,middle,ilya4,index_ring,119.999022119,m,None,,,,,,"[1, 0, 1]",14,0.0,1.0,"[1, 3]",1.0,0.314446890783,2.0,38.0,4.0,6.0,,,,
49,,,1.0,p,2.0,2016_Mar_16_1550,b,ring,ilya4,index_ring,119.999022119,m,None,,,,,,"[1, 0, 1]",14,0.0,1.0,"[1, 3]",2.0,0.41442603251000004,7.0,39.0,4.0,7.0,,,,
50,,,1.0,p,2.0,2016_Mar_16_1550,0,baseline,ilya4,index_ring,119.999022119,m,None,,,,,,"[1, 0, 1]",14,0.0,1.0,"[1, 3]",2.0,0.389424379505,4.0,40.0,5.0,0.0,,,,
51,,,1.0,p,2.0,2016_Mar_16_1550,0,baseline,ilya4,index_ring,119.999022119,m,None,,,,,,"[1, 0, 1]",14,0.0,0.0,"[1, 3]",2.0,0.364385901075,4.0,41.0,5.0,1.0,,,,
52,,,1.0,g,1.0,2016_Mar_16_1550,b,ring,ilya4,index_ring,119.999022119,m,None,,,,,,"[1, 0, 1]",14,0.0,1.0,"[1, 3]",1.0,0.439447607435,3.0,42.0,5.0,2.0,,,,
53,,,1.0,g,1.0,2016_Mar_16_1550,i,index,ilya4,index_ring,119.999022119,m,None,,,,,,"[1, 0, 1]",14,0.0,1.0,"[1, 3]",1.0,0.43943221267300003,1.0,43.0,5.0,3.0,,,,
54,,,1.0,p,2.0,2016_Mar_16_1550,b,ring,ilya4,index_ring,119.999022119,m,None,,,,,,"[1, 0, 1]",14,0.0,1.0,"[1, 3]",2.0,0.314426062685,7.0,44.0,5.0,4.0,,,,
55,,,1.0,p,2.0,2016_Mar_16_1550,0,baseline,ilya4,index_ring,119.999022119,m,None,,,,,,"[1, 0, 1]",14,0.0,1.0,"[1, 3]",2.0,0.41422137530500003,4.0,45.0,5.0,5.0,,,,
56,,,1.0,p,2.0,2016_Mar_16_1550,m,middle,ilya4,index_ring,119.999022119,m,None,,,,,,"[1, 0, 1]",14,0.0,1.0,"[1, 3]",2.0,0.36442242521799995,6.0,46.0,5.0,6.0,,,,
57,,,1.0,p,2.0,2016_Mar_16_1550,i,index,ilya4,index_ring,119.999022119,m,None,,,,,,"[1, 0, 1]",14,0.0,1.0,"[1, 3]",2.0,0.339429526646,5.0,47.0,5.0,7.0,,,,
58,,,1.0,p,2.0,2016_Mar_16_1550,b,ring,ilya4,index_ring,119.999022119,m,None,,,,,,"[1, 0, 1]",14,0.0,1.0,"[1, 3]",2.0,0.389440679979,7.0,48.0,6.0,0.0,,,,
59,,,1.0,g,1.0,2016_Mar_16_1550,m,middle,ilya4,index_ring,119.999022119,m,None,,,,,,"[1, 0, 1]",14,0.0,1.0,"[1, 3]",1.0,0.322484655827,2.0,49.0,6.0,1.0,,,,
60,,,1.0,p,2.0,2016_Mar_16_1550,b,ring,ilya4,index_ring,119.999022119,m,None,,,,,,"[1, 0, 1]",14,0.0,1.0,"[1, 3]",2.0,0.264296884239,7.0,50.0,6.0,2.0,,,,
61,,,1.0,p,2.0,2016_Mar_16_1550,b,ring,ilya4,index_ring,119.999022119,m,None,,,,,,"[1, 0, 1]",14,0.0,1.0,"[1, 3]",2.0,0.339423791096,7.0,51.0,6.0,3.0,,,,
62,,,1.0,g,1.0,2016_Mar_16_1550,0,baseline,ilya4,index_ring,119.999022119,m,None,,,,,,"[1, 0, 1]",14,0.0,1.0,"[1, 3]",1.0,0.314433306977,0.0,52.0,6.0,4.0,,,,
63,,,1.0,p,2.0,2016_Mar_16_1550,i,index,ilya4,index_ring,119.999022119,m,None,,,,,,"[1, 0, 1]",14,0.0,1.0,"[1, 3]",2.0,0.314456248246,5.0,53.0,6.0,5.0,,,,
64,,,0.0,p,2.0,2016_Mar_16_1550,m,middle,ilya4,index_ring,119.999022119,m,None,,,,,,"[1, 0, 1]",14,0.0,1.0,"[1, 3]",1.0,0.314423043802,6.0,54.0,6.0,6.0,,,,
65,,,1.0,g,1.0,2016_Mar_16_1550,m,middle,ilya4,index_ring,119.999022119,m,None,,,,,,"[1, 0, 1]",14,0.0,1.0,"[1, 3]",1.0,0.464104844313,2.0,55.0,6.0,7.0,,,,
66,,,1.0,g,1.0,2016_Mar_16_1550,m,middle,ilya4,index_ring,119.999022119,m,None,,,,,,"[1, 0, 1]",14,0.0,1.0,"[1, 3]",1.0,0.389428001884,2.0,56.0,7.0,0.0,,,,
67,,,1.0,p,2.0,2016_Mar_16_1550,0,baseline,ilya4,index_ring,119.999022119,m,None,,,,,,"[1, 0, 1]",14,0.0,1.0,"[1, 3]",2.0,0.364327341374,4.0,57.0,7.0,1.0,,,,
68,,,1.0,g,1.0,2016_Mar_16_1550,b,ring,ilya4,index_ring,119.999022119,m,None,,,,,,"[1, 0, 1]",14,0.0,1.0,"[1, 3]",1.0,0.41440339298900003,3.0,58.0,7.0,2.0,,,,
69,,,1.0,p,2.0,2016_Mar_16_1550,b,ring,ilya4,index_ring,119.999022119,m,None,,,,,,"[1, 0, 1]",14,0.0,1.0,"[1, 3]",2.0,0.489461175688,7.0,59.0,7.0,3.0,,,,
70,,,1.0,p,2.0,2016_Mar_16_1550,i,index,ilya4,index_ring,119.999022119,m,None,,,,,,"[1, 0, 1]",14,0.0,1.0,"[1, 3]",2.0,0.664418712314,5.0,60.0,7.0,4.0,,,,
71,,,1.0,p,2.0,2016_Mar_16_1550,0,baseline,ilya4,index_ring,119.999022119,m,None,,,,,,"[1, 0, 1]",14,0.0,1.0,"[1, 3]",2.0,0.539471122026,4.0,61.0,7.0,5.0,,,,
72,,,1.0,g,1.0,2016_Mar_16_1550,i,index,ilya4,index_ring,119.999022119,m,None,,,,,,"[1, 0, 1]",14,0.0,1.0,"[1, 3]",1.0,0.46436081692599995,1.0,62.0,7.0,6.0,,,,
73,,,1.0,p,2.0,2016_Mar_16_1550,m,middle,ilya4,index_ring,119.999022119,m,None,,,,,,"[1, 0, 1]",14,0.0,1.0,"[1, 3]",2.0,0.314428779352,6.0,63.0,7.0,7.0,,,,
74,,,1.0,g,1.0,2016_Mar_16_1550,i,index,ilya4,index_ring,119.999022119,m,None,,,,,,"[1, 0, 1]",14,0.0,1.0,"[1, 3]",1.0,0.389219118804,1.0,64.0,8.0,0.0,,,,
75,,,1.0,g,1.0,2016_Mar_16_1550,0,baseline,ilya4,index_ring,119.999022119,m,None,,,,,,"[1, 0, 1]",14,0.0,1.0,"[1, 3]",1.0,0.36430289089699996,0.0,65.0,8.0,1.0,,,,
76,,,1.0,p,2.0,2016_Mar_16_1550,b,ring,ilya4,index_ring,119.999022119,m,None,,,,,,"[1, 0, 1]",14,0.0,1.0,"[1, 3]",2.0,0.339408396799,7.0,66.0,8.0,2.0,,,,
77,,,1.0,p,2.0,2016_Mar_16_1550,b,ring,ilya4,index_ring,119.999022119,m,None,,,,,,"[1, 0, 1]",14,0.0,1.0,"[1, 3]",2.0,0.414441125058,7.0,67.0,8.0,3.0,,,,
78,,,1.0,p,2.0,2016_Mar_16_1550,i,index,ilya4,index_ring,119.999022119,m,None,,,,,,"[1, 0, 1]",14,0.0,1.0,"[1, 3]",2.0,0.31443421268800004,5.0,68.0,8.0,4.0,,,,
79,,,1.0,p,2.0,2016_Mar_16_1550,m,middle,ilya4,index_ring,119.999022119,m,None,,,,,,"[1, 0, 1]",14,0.0,1.0,"[1, 3]",2.0,0.339426809512,6.0,69.0,8.0,5.0,,,,
80,,,1.0,p,2.0,2016_Mar_16_1550,b,ring,ilya4,index_ring,119.999022119,m,None,,,,,,"[1, 0, 1]",14,0.0,1.0,"[1, 3]",2.0,0.339432242848,7.0,70.0,8.0,6.0,,,,
81,,,1.0,p,2.0,2016_Mar_16_1550,0,baseline,ilya4,index_ring,119.999022119,m,None,,,,,,"[1, 0, 1]",14,0.0,1.0,"[1, 3]",2.0,0.314486735091,4.0,71.0,8.0,7.0,,,,
82,,,1.0,p,2.0,2016_Mar_16_1550,b,ring,ilya4,index_ring,119.999022119,m,None,,,,,,"[1, 0, 1]",14,0.0,1.0,"[1, 3]",2.0,0.314427270144,7.0,72.0,9.0,0.0,,,,
83,,,1.0,g,1.0,2016_Mar_16_1550,i,index,ilya4,index_ring,119.999022119,m,None,,,,,,"[1, 0, 1]",14,0.0,1.0,"[1, 3]",1.0,0.46446827665,1.0,73.0,9.0,1.0,,,,
84,,,1.0,g,1.0,2016_Mar_16_1550,m,middle,ilya4,index_ring,119.999022119,m,None,,,,,,"[1, 0, 1]",14,0.0,1.0,"[1, 3]",1.0,0.364391334411,2.0,74.0,9.0,2.0,,,,
85,,,1.0,p,2.0,2016_Mar_16_1550,0,baseline,ilya4,index_ring,119.999022119,m,None,,,,,,"[1, 0, 1]",14,0.0,1.0,"[1, 3]",2.0,0.33942167792499994,4.0,75.0,9.0,3.0,,,,
86,,,1.0,g,1.0,2016_Mar_16_1550,m,middle,ilya4,index_ring,119.999022119,m,None,,,,,,"[1, 0, 1]",14,0.0,1.0,"[1, 3]",1.0,0.489439744093,2.0,76.0,9.0,4.0,,,,
87,,,1.0,g,1.0,2016_Mar_16_1550,b,ring,ilya4,index_ring,119.999022119,m,None,,,,,,"[1, 0, 1]",14,0.0,1.0,"[1, 3]",1.0,0.36447132570699997,3.0,77.0,9.0,5.0,,,,
88,,,1.0,g,1.0,2016_Mar_16_1550,0,baseline,ilya4,index_ring,119.999022119,m,None,,,,,,"[1, 0, 1]",14,0.0,1.0,"[1, 3]",1.0,0.389433133472,0.0,78.0,9.0,6.0,,,,
89,,,1.0,p,2.0,2016_Mar_16_1550,m,middle,ilya4,index_ring,119.999022119,m,None,,,,,,"[1, 0, 1]",14,0.0,1.0,"[1, 3]",2.0,0.36442514188600006,6.0,79.0,9.0,7.0,,,,
90,,,1.0,p,2.0,2016_Mar_16_1550,m,middle,ilya4,index_ring,119.999022119,m,None,,,,,,"[1, 0, 1]",14,0.0,1.0,"[1, 3]",2.0,0.339446128402,6.0,80.0,10.0,0.0,,,,
91,,,1.0,p,2.0,2016_Mar_16_1550,b,ring,ilya4,index_ring,119.999022119,m,None,,,,,,"[1, 0, 1]",14,0.0,0.0,"[1, 3]",2.0,0.389394496158,7.0,81.0,10.0,1.0,,,,
92,,,1.0,g,1.0,2016_Mar_16_1550,b,ring,ilya4,index_ring,119.999022119,m,None,,,,,,"[1, 0, 1]",14,0.0,1.0,"[1, 3]",1.0,0.41442935314,3.0,82.0,10.0,2.0,,,,
93,,,0.0,p,2.0,2016_Mar_16_1550,0,baseline,ilya4,index_ring,119.999022119,m,None,,,,,,"[1, 0, 1]",14,0.0,1.0,"[1, 3]",1.0,0.36445593094499995,4.0,83.0,10.0,3.0,,,,
94,,,1.0,g,1.0,2016_Mar_16_1550,i,index,ilya4,index_ring,119.999022119,m,None,,,,,,"[1, 0, 1]",14,0.0,1.0,"[1, 3]",1.0,0.33942077267899995,1.0,84.0,10.0,4.0,,,,
95,,,1.0,g,1.0,2016_Mar_16_1550,i,index,ilya4,index_ring,119.999022119,m,None,,,,,,"[1, 0, 1]",14,0.0,1.0,"[1, 3]",1.0,0.33943556347900006,1.0,85.0,10.0,5.0,,,,
96,,,1.0,p,2.0,2016_Mar_16_1550,i,index,ilya4,index_ring,119.999022119,m,None,,,,,,"[1, 0, 1]",14,0.0,1.0,"[1, 3]",2.0,0.364430273473,5.0,86.0,10.0,6.0,,,,
97,,,1.0,p,2.0,2016_Mar_16_1550,m,middle,ilya4,index_ring,119.999022119,m,None,,,,,,"[1, 0, 1]",14,0.0,1.0,"[1, 3]",2.0,0.38927375484300003,6.0,87.0,10.0,7.0,,,,
98,,,1.0,p,2.0,2016_Mar_16_1550,b,ring,ilya4,index_ring,119.999022119,m,None,,,,,,"[1, 0, 1]",14,0.0,1.0,"[1, 3]",2.0,0.314402517918,7.0,88.0,11.0,0.0,,,,
99,,,1.0,g,1.0,2016_Mar_16_1550,m,middle,ilya4,index_ring,119.999022119,m,None,,,,,,"[1, 0, 1]",14,0.0,1.0,"[1, 3]",1.0,0.46441062266000005,2.0,89.0,11.0,1.0,,,,
100,,,1.0,p,2.0,2016_Mar_16_1550,b,ring,ilya4,index_ring,119.999022119,m,None,,,,,,"[1, 0, 1]",14,0.0,1.0,"[1, 3]",2.0,0.364426952843,7.0,90.0,11.0,2.0,,,,
101,,,1.0,p,2.0,2016_Mar_16_1550,m,middle,ilya4,index_ring,119.999022119,m,None,,,,,,"[1, 0, 1]",14,0.0,1.0,"[1, 3]",2.0,0.339429224432,6.0,91.0,11.0,3.0,,,,
102,,,0.0,g,1.0,2016_Mar_16_1550,m,middle,ilya4,index_ring,119.999022119,m,None,,,,,,"[1, 0, 1]",14,0.0,1.0,"[1, 3]",2.0,0.364432989676,2.0,92.0,11.0,4.0,,,,
103,,,1.0,g,1.0,2016_Mar_16_1550,m,middle,ilya4,index_ring,119.999022119,m,None,,,,,,"[1, 0, 1]",14,0.0,1.0,"[1, 3]",1.0,0.339461522698,2.0,93.0,11.0,5.0,,,,
104,,,1.0,g,1.0,2016_Mar_16_1550,i,index,ilya4,index_ring,119.999022119,m,None,,,,,,"[1, 0, 1]",14,0.0,1.0,"[1, 3]",1.0,0.414426636472,1.0,94.0,11.0,6.0,,,,
105,,,1.0,p,2.0,2016_Mar_16_1550,0,baseline,ilya4,index_ring,119.999022119,m,None,,,,,,"[1, 0, 1]",14,0.0,1.0,"[1, 3]",2.0,0.33943888410899997,4.0,95.0,11.0,7.0,,,,
106,,,1.0,g,1.0,2016_Mar_16_1550,0,baseline,ilya4,index_ring,119.999022119,m,None,,,,,,"[1, 0, 1]",14,0.0,1.0,"[1, 3]",1.0,0.314389538076,0.0,96.0,12.0,0.0,,,,
107,,,1.0,g,1.0,2016_Mar_16_1550,i,index,ilya4,index_ring,119.999022119,m,None,,,,,,"[1, 0, 1]",14,0.0,1.0,"[1, 3]",1.0,0.43942949600500003,1.0,97.0,12.0,1.0,,,,
108,,,1.0,p,2.0,2016_Mar_16_1550,0,baseline,ilya4,index_ring,119.999022119,m,None,,,,,,"[1, 0, 1]",14,0.0,1.0,"[1, 3]",2.0,0.31441579951,4.0,98.0,12.0,2.0,,,,
109,,,1.0,p,2.0,2016_Mar_16_1550,0,baseline,ilya4,index_ring,119.999022119,m,None,,,,,,"[1, 0, 1]",14,0.0,1.0,"[1, 3]",2.0,0.41439584694799997,4.0,99.0,12.0,3.0,,,,
110,,,1.0,g,1.0,2016_Mar_16_1550,m,middle,ilya4,index_ring,119.999022119,m,None,,,,,,"[1, 0, 1]",14,0.0,1.0,"[1, 3]",1.0,0.31436478585,2.0,100.0,12.0,4.0,,,,
111,,,1.0,p,2.0,2016_Mar_16_1550,0,baseline,ilya4,index_ring,119.999022119,m,None,,,,,,"[1, 0, 1]",14,0.0,1.0,"[1, 3]",2.0,0.289450671114,4.0,101.0,12.0,5.0,,,,
112,,,1.0,p,2.0,2016_Mar_16_1550,m,middle,ilya4,index_ring,119.999022119,m,None,,,,,,"[1, 0, 1]",14,0.0,1.0,"[1, 3]",2.0,0.38938996853299995,6.0,102.0,12.0,6.0,,,,
113,,,1.0,g,1.0,2016_Mar_16_1550,0,baseline,ilya4,index_ring,119.999022119,m,None,,,,,,"[1, 0, 1]",14,0.0,1.0,"[1, 3]",1.0,0.33941232092699997,0.0,103.0,12.0,7.0,,,,
114,,,1.0,g,1.0,2016_Mar_16_1550,b,ring,ilya4,index_ring,119.999022119,m,None,,,,,,"[1, 0, 1]",14,0.0,1.0,"[1, 3]",1.0,0.389374875519,3.0,104.0,13.0,0.0,,,,
115,,,1.0,g,1.0,2016_Mar_16_1550,b,ring,ilya4,index_ring,119.999022119,m,None,,,,,,"[1, 0, 1]",14,0.0,1.0,"[1, 3]",1.0,0.38947961904100004,3.0,105.0,13.0,1.0,,,,
116,,,1.0,p,2.0,2016_Mar_16_1550,i,index,ilya4,index_ring,119.999022119,m,None,,,,,,"[1, 0, 1]",14,0.0,1.0,"[1, 3]",2.0,0.3144203276,5.0,106.0,13.0,2.0,,,,
117,,,1.0,p,2.0,2016_Mar_16_1550,m,middle,ilya4,index_ring,119.999022119,m,None,,,,,,"[1, 0, 1]",14,0.0,1.0,"[1, 3]",2.0,0.41443388029899997,6.0,107.0,13.0,3.0,,,,
118,,,1.0,g,1.0,2016_Mar_16_1550,i,index,ilya4,index_ring,119.999022119,m,None,,,,,,"[1, 0, 1]",14,0.0,1.0,"[1, 3]",1.0,0.314406442046,1.0,108.0,13.0,4.0,,,,
119,,,1.0,p,2.0,2016_Mar_16_1550,0,baseline,ilya4,index_ring,119.999022119,m,None,,,,,,"[1, 0, 1]",14,0.0,1.0,"[1, 3]",2.0,0.364430575222,4.0,109.0,13.0,5.0,,,,
120,,,1.0,p,2.0,2016_Mar_16_1550,m,middle,ilya4,index_ring,119.999022119,m,None,,,,,,"[1, 0, 1]",14,0.0,1.0,"[1, 3]",2.0,0.31437897315200003,6.0,110.0,13.0,6.0,,,,
121,,,1.0,g,1.0,2016_Mar_16_1550,i,index,ilya4,index_ring,119.999022119,m,None,,,,,,"[1, 0, 1]",14,0.0,1.0,"[1, 3]",1.0,0.389022008572,1.0,111.0,13.0,7.0,,,,
122,,,0.0,g,1.0,2016_Mar_16_1550,b,ring,ilya4,index_ring,119.999022119,m,None,,,,,,"[1, 0, 1]",14,0.0,1.0,"[1, 3]",2.0,0.33943254459600003,3.0,112.0,14.0,0.0,,,,
123,,,1.0,p,2.0,2016_Mar_16_1550,b,ring,ilya4,index_ring,119.999022119,m,None,,,,,,"[1, 0, 1]",14,0.0,1.0,"[1, 3]",2.0,0.389431322515,7.0,113.0,14.0,1.0,,,,
124,,,1.0,g,1.0,2016_Mar_16_1550,i,index,ilya4,index_ring,119.999022119,m,None,,,,,,"[1, 0, 1]",14,0.0,1.0,"[1, 3]",1.0,0.389415022507,1.0,114.0,14.0,2.0,,,,
125,,,1.0,p,2.0,2016_Mar_16_1550,m,middle,ilya4,index_ring,119.999022119,m,None,,,,,,"[1, 0, 1]",14,0.0,1.0,"[1, 3]",2.0,0.36438439140100004,6.0,115.0,14.0,3.0,,,,
126,,,1.0,g,1.0,2016_Mar_16_1550,i,index,ilya4,index_ring,119.999022119,m,None,,,,,,"[1, 0, 1]",14,0.0,1.0,"[1, 3]",1.0,0.414410335999,1.0,116.0,14.0,4.0,,,,
127,,,1.0,g,1.0,2016_Mar_16_1550,b,ring,ilya4,index_ring,119.999022119,m,None,,,,,,"[1, 0, 1]",14,0.0,1.0,"[1, 3]",1.0,0.48943280154799995,3.0,117.0,14.0,5.0,,,,
128,,,1.0,g,1.0,2016_Mar_16_1550,i,index,ilya4,index_ring,119.999022119,m,None,,,,,,"[1, 0, 1]",14,0.0,1.0,"[1, 3]",1.0,0.364438121729,1.0,118.0,14.0,6.0,,,,
129,,,1.0,g,1.0,2016_Mar_16_1550,b,ring,ilya4,index_ring,119.999022119,m,None,,,,,,"[1, 0, 1]",14,0.0,1.0,"[1, 3]",1.0,0.414431164097,3.0,119.0,14.0,7.0,,,,
0,,,,,,2016_Mar_16_1643,,,ilya4,,120.012751682,m,,,,,space,104.84948738700001,,16,,,,,,,,,,,,,
1,,,0.0,p,2.0,2016_Mar_16_1643,m,middle,ilya4,index_ring,120.012751682,m,,,,,,,"[1, 0, 1]",16,1.0,0.0,"[1, 3]",0.0,-1.0,,,,,6.0,0.0,0.0,0.0
2,,,1.0,p,2.0,2016_Mar_16_1643,0,baseline,ilya4,index_ring,120.012751682,m,,,,,,,"[1, 0, 1]",16,1.0,0.0,"[1, 3]",2.0,0.514671459384,,,,,4.0,1.0,0.0,1.0
3,,,1.0,g,1.0,2016_Mar_16_1643,b,ring,ilya4,index_ring,120.012751682,m,,,,,,,"[1, 0, 1]",16,1.0,0.0,"[1, 3]",1.0,0.36459684005000004,,,,,3.0,2.0,0.0,2.0
4,,,1.0,p,2.0,2016_Mar_16_1643,b,ring,ilya4,index_ring,120.012751682,m,,,,,,,"[1, 0, 1]",16,1.0,0.0,"[1, 3]",2.0,0.41464586189,,,,,7.0,3.0,0.0,3.0
5,,,1.0,g,1.0,2016_Mar_16_1643,m,middle,ilya4,index_ring,120.012751682,m,,,,,,,"[1, 0, 1]",16,1.0,0.0,"[1, 3]",1.0,0.31462932011100003,,,,,2.0,4.0,0.0,4.0
6,,,1.0,g,1.0,2016_Mar_16_1643,i,index,ilya4,index_ring,120.012751682,m,,,,,,,"[1, 0, 1]",16,1.0,0.0,"[1, 3]",1.0,0.489661739729,,,,,1.0,5.0,0.0,5.0
7,,,1.0,g,1.0,2016_Mar_16_1643,0,baseline,ilya4,index_ring,120.012751682,m,,,,,,,"[1, 0, 1]",16,1.0,0.0,"[1, 3]",1.0,0.414682990462,,,,,0.0,6.0,0.0,6.0
8,,,1.0,p,2.0,2016_Mar_16_1643,i,index,ilya4,index_ring,120.012751682,m,,,,,,,"[1, 0, 1]",16,1.0,0.0,"[1, 3]",2.0,0.639637953192,,,,,5.0,7.0,0.0,7.0
9,,,,,,2016_Mar_16_1643,,,ilya4,,120.012751682,m,,,space,10.7844958631,,,,16,,,,,,,,,,,,,
10,,,1.0,p,2.0,2016_Mar_16_1643,m,middle,ilya4,index_ring,120.012751682,m,space,4.10051762359,,,,,"[1, 0, 1]",16,0.0,1.0,"[1, 3]",2.0,0.41795239836,6.0,0.0,0.0,0.0,,,,
11,,,1.0,p,2.0,2016_Mar_16_1643,0,baseline,ilya4,index_ring,120.012751682,m,None,,,,,,"[1, 0, 1]",16,0.0,0.0,"[1, 3]",2.0,0.48905832838299995,4.0,1.0,0.0,1.0,,,,
12,,,1.0,p,2.0,2016_Mar_16_1643,0,baseline,ilya4,index_ring,120.012751682,m,None,,,,,,"[1, 0, 1]",16,0.0,1.0,"[1, 3]",2.0,0.539397132173,4.0,2.0,0.0,2.0,,,,
13,,,1.0,p,2.0,2016_Mar_16_1643,m,middle,ilya4,index_ring,120.012751682,m,None,,,,,,"[1, 0, 1]",16,0.0,1.0,"[1, 3]",2.0,0.389447481893,6.0,3.0,0.0,3.0,,,,
14,,,1.0,p,2.0,2016_Mar_16_1643,0,baseline,ilya4,index_ring,120.012751682,m,None,,,,,,"[1, 0, 1]",16,0.0,1.0,"[1, 3]",2.0,0.5144423503059999,4.0,4.0,0.0,4.0,,,,
15,,,1.0,g,1.0,2016_Mar_16_1643,b,ring,ilya4,index_ring,120.012751682,m,None,,,,,,"[1, 0, 1]",16,0.0,1.0,"[1, 3]",1.0,0.339395441636,3.0,5.0,0.0,5.0,,,,
16,,,1.0,g,1.0,2016_Mar_16_1643,b,ring,ilya4,index_ring,120.012751682,m,None,,,,,,"[1, 0, 1]",16,0.0,1.0,"[1, 3]",1.0,0.439360667542,3.0,6.0,0.0,6.0,,,,
17,,,1.0,p,2.0,2016_Mar_16_1643,b,ring,ilya4,index_ring,120.012751682,m,None,,,,,,"[1, 0, 1]",16,0.0,1.0,"[1, 3]",2.0,0.414427921232,7.0,7.0,0.0,7.0,,,,
18,,,1.0,g,1.0,2016_Mar_16_1643,i,index,ilya4,index_ring,120.012751682,m,None,,,,,,"[1, 0, 1]",16,0.0,1.0,"[1, 3]",1.0,0.43940021103200005,1.0,8.0,1.0,0.0,,,,
19,,,1.0,g,1.0,2016_Mar_16_1643,m,middle,ilya4,index_ring,120.012751682,m,None,,,,,,"[1, 0, 1]",16,0.0,1.0,"[1, 3]",1.0,0.314357649591,2.0,9.0,1.0,1.0,,,,
20,,,1.0,g,1.0,2016_Mar_16_1643,i,index,ilya4,index_ring,120.012751682,m,None,,,,,,"[1, 0, 1]",16,0.0,1.0,"[1, 3]",1.0,0.43941530404600004,1.0,10.0,1.0,2.0,,,,
21,,,1.0,g,1.0,2016_Mar_16_1643,i,index,ilya4,index_ring,120.012751682,m,None,,,,,,"[1, 0, 1]",16,0.0,1.0,"[1, 3]",1.0,0.389420616496,1.0,11.0,1.0,3.0,,,,
22,,,1.0,p,2.0,2016_Mar_16_1643,b,ring,ilya4,index_ring,120.012751682,m,None,,,,,,"[1, 0, 1]",16,0.0,1.0,"[1, 3]",2.0,0.46436314336999995,7.0,12.0,1.0,4.0,,,,
23,,,1.0,p,2.0,2016_Mar_16_1643,m,middle,ilya4,index_ring,120.012751682,m,None,,,,,,"[1, 0, 1]",16,0.0,1.0,"[1, 3]",2.0,0.38934726553000004,6.0,13.0,1.0,5.0,,,,
24,,,1.0,g,1.0,2016_Mar_16_1643,0,baseline,ilya4,index_ring,120.012751682,m,None,,,,,,"[1, 0, 1]",16,0.0,1.0,"[1, 3]",1.0,0.43940021103200005,0.0,14.0,1.0,6.0,,,,
25,,,1.0,g,1.0,2016_Mar_16_1643,m,middle,ilya4,index_ring,120.012751682,m,None,,,,,,"[1, 0, 1]",16,0.0,1.0,"[1, 3]",1.0,0.43931750213699994,2.0,15.0,1.0,7.0,,,,
26,,,0.0,p,2.0,2016_Mar_16_1643,m,middle,ilya4,index_ring,120.012751682,m,None,,,,,,"[1, 0, 1]",16,0.0,1.0,"[1, 3]",1.0,0.364406670965,6.0,16.0,2.0,0.0,,,,
27,,,1.0,g,1.0,2016_Mar_16_1643,b,ring,ilya4,index_ring,120.012751682,m,None,,,,,,"[1, 0, 1]",16,0.0,1.0,"[1, 3]",1.0,0.464401478935,3.0,17.0,2.0,1.0,,,,
28,,,1.0,g,1.0,2016_Mar_16_1643,0,baseline,ilya4,index_ring,120.012751682,m,None,,,,,,"[1, 0, 1]",16,0.0,1.0,"[1, 3]",1.0,0.364394596368,0.0,18.0,2.0,2.0,,,,
29,,,1.0,g,1.0,2016_Mar_16_1643,b,ring,ilya4,index_ring,120.012751682,m,None,,,,,,"[1, 0, 1]",16,0.0,1.0,"[1, 3]",1.0,0.439365497846,3.0,19.0,2.0,3.0,,,,
30,,,1.0,g,1.0,2016_Mar_16_1643,i,index,ilya4,index_ring,120.012751682,m,None,,,,,,"[1, 0, 1]",16,0.0,1.0,"[1, 3]",1.0,0.38946921570200005,1.0,20.0,2.0,4.0,,,,
31,,,1.0,g,1.0,2016_Mar_16_1643,0,baseline,ilya4,index_ring,120.012751682,m,None,,,,,,"[1, 0, 1]",16,0.0,1.0,"[1, 3]",1.0,0.589342918769,0.0,21.0,2.0,5.0,,,,
32,,,1.0,g,1.0,2016_Mar_16_1643,0,baseline,ilya4,index_ring,120.012751682,m,None,,,,,,"[1, 0, 1]",16,0.0,1.0,"[1, 3]",1.0,0.38939043093500003,0.0,22.0,2.0,6.0,,,,
33,,,1.0,p,2.0,2016_Mar_16_1643,0,baseline,ilya4,index_ring,120.012751682,m,None,,,,,,"[1, 0, 1]",16,0.0,1.0,"[1, 3]",2.0,0.5643654973800001,4.0,23.0,2.0,7.0,,,,
34,,,1.0,g,1.0,2016_Mar_16_1643,m,middle,ilya4,index_ring,120.012751682,m,None,,,,,,"[1, 0, 1]",16,0.0,1.0,"[1, 3]",1.0,0.41445388091700003,2.0,24.0,3.0,0.0,,,,
35,,,1.0,p,2.0,2016_Mar_16_1643,m,middle,ilya4,index_ring,120.012751682,m,None,,,,,,"[1, 0, 1]",16,0.0,1.0,"[1, 3]",2.0,0.514406731408,6.0,25.0,3.0,1.0,,,,
36,,,1.0,p,2.0,2016_Mar_16_1643,i,index,ilya4,index_ring,120.012751682,m,None,,,,,,"[1, 0, 1]",16,0.0,1.0,"[1, 3]",2.0,0.464364350829,5.0,26.0,3.0,2.0,,,,
37,,,1.0,p,2.0,2016_Mar_16_1643,m,middle,ilya4,index_ring,120.012751682,m,None,,,,,,"[1, 0, 1]",16,0.0,1.0,"[1, 3]",2.0,0.414383548368,6.0,27.0,3.0,3.0,,,,
38,,,1.0,g,1.0,2016_Mar_16_1643,i,index,ilya4,index_ring,120.012751682,m,None,,,,,,"[1, 0, 1]",16,0.0,1.0,"[1, 3]",1.0,0.564413190875,1.0,28.0,3.0,4.0,,,,
39,,,1.0,p,2.0,2016_Mar_16_1643,i,index,ilya4,index_ring,120.012751682,m,None,,,,,,"[1, 0, 1]",16,0.0,1.0,"[1, 3]",2.0,0.489412104301,5.0,29.0,3.0,5.0,,,,
40,,,1.0,g,1.0,2016_Mar_16_1643,b,ring,ilya4,index_ring,120.012751682,m,None,,,,,,"[1, 0, 1]",16,0.0,1.0,"[1, 3]",1.0,0.46436827449100004,3.0,30.0,3.0,6.0,,,,
41,,,1.0,g,1.0,2016_Mar_16_1643,i,index,ilya4,index_ring,120.012751682,m,None,,,,,,"[1, 0, 1]",16,0.0,1.0,"[1, 3]",1.0,0.514375338387,1.0,31.0,3.0,7.0,,,,
42,,,1.0,p,2.0,2016_Mar_16_1643,i,index,ilya4,index_ring,120.012751682,m,None,,,,,,"[1, 0, 1]",16,0.0,1.0,"[1, 3]",2.0,0.464403592106,5.0,32.0,4.0,0.0,,,,
43,,,1.0,p,2.0,2016_Mar_16_1643,b,ring,ilya4,index_ring,120.012751682,m,None,,,,,,"[1, 0, 1]",16,0.0,1.0,"[1, 3]",2.0,0.539407697096,7.0,33.0,4.0,1.0,,,,
44,,,1.0,p,2.0,2016_Mar_16_1643,b,ring,ilya4,index_ring,120.012751682,m,None,,,,,,"[1, 0, 1]",16,0.0,1.0,"[1, 3]",2.0,0.41439984884099995,7.0,34.0,4.0,2.0,,,,
45,,,1.0,p,2.0,2016_Mar_16_1643,0,baseline,ilya4,index_ring,120.012751682,m,None,,,,,,"[1, 0, 1]",16,0.0,1.0,"[1, 3]",2.0,0.489363807309,4.0,35.0,4.0,3.0,,,,
46,,,1.0,g,1.0,2016_Mar_16_1643,0,baseline,ilya4,index_ring,120.012751682,m,None,,,,,,"[1, 0, 1]",16,0.0,1.0,"[1, 3]",1.0,0.414425204564,0.0,36.0,4.0,4.0,,,,
47,,,1.0,g,1.0,2016_Mar_16_1643,0,baseline,ilya4,index_ring,120.012751682,m,None,,,,,,"[1, 0, 1]",16,0.0,1.0,"[1, 3]",1.0,0.38941639062,0.0,37.0,4.0,5.0,,,,
48,,,1.0,p,2.0,2016_Mar_16_1643,b,ring,ilya4,index_ring,120.012751682,m,None,,,,,,"[1, 0, 1]",16,0.0,1.0,"[1, 3]",2.0,0.36441059462700004,7.0,38.0,4.0,6.0,,,,
49,,,1.0,p,2.0,2016_Mar_16_1643,m,middle,ilya4,index_ring,120.012751682,m,None,,,,,,"[1, 0, 1]",16,0.0,1.0,"[1, 3]",2.0,0.339354389403,6.0,39.0,4.0,7.0,,,,
50,,,1.0,g,1.0,2016_Mar_16_1643,b,ring,ilya4,index_ring,120.012751682,m,None,,,,,,"[1, 0, 1]",16,0.0,1.0,"[1, 3]",1.0,0.539371172488,3.0,40.0,5.0,0.0,,,,
51,,,1.0,g,1.0,2016_Mar_16_1643,i,index,ilya4,index_ring,120.012751682,m,None,,,,,,"[1, 0, 1]",16,0.0,0.0,"[1, 3]",1.0,0.414353966769,1.0,41.0,5.0,1.0,,,,
52,,,1.0,g,1.0,2016_Mar_16_1643,0,baseline,ilya4,index_ring,120.012751682,m,None,,,,,,"[1, 0, 1]",16,0.0,1.0,"[1, 3]",1.0,0.46438789513000006,0.0,42.0,5.0,2.0,,,,
53,,,1.0,p,2.0,2016_Mar_16_1643,i,index,ilya4,index_ring,120.012751682,m,None,,,,,,"[1, 0, 1]",16,0.0,1.0,"[1, 3]",2.0,0.46437672670900004,5.0,43.0,5.0,3.0,,,,
54,,,1.0,p,2.0,2016_Mar_16_1643,m,middle,ilya4,index_ring,120.012751682,m,None,,,,,,"[1, 0, 1]",16,0.0,1.0,"[1, 3]",2.0,0.814421944842,6.0,44.0,5.0,4.0,,,,
55,,,1.0,p,2.0,2016_Mar_16_1643,0,baseline,ilya4,index_ring,120.012751682,m,None,,,,,,"[1, 0, 1]",16,0.0,1.0,"[1, 3]",2.0,0.389406731408,4.0,45.0,5.0,5.0,,,,
56,,,1.0,g,1.0,2016_Mar_16_1643,0,baseline,ilya4,index_ring,120.012751682,m,None,,,,,,"[1, 0, 1]",16,0.0,1.0,"[1, 3]",1.0,0.389458046816,0.0,46.0,5.0,6.0,,,,
57,,,1.0,g,1.0,2016_Mar_16_1643,0,baseline,ilya4,index_ring,120.012751682,m,None,,,,,,"[1, 0, 1]",16,0.0,1.0,"[1, 3]",1.0,0.464404799566,0.0,47.0,5.0,7.0,,,,
58,,,0.0,g,1.0,2016_Mar_16_1643,m,middle,ilya4,index_ring,120.012751682,m,None,,,,,,"[1, 0, 1]",16,0.0,1.0,"[1, 3]",2.0,-0.110642773509,2.0,48.0,6.0,0.0,,,,
59,,,1.0,g,1.0,2016_Mar_16_1643,b,ring,ilya4,index_ring,120.012751682,m,None,,,,,,"[1, 0, 1]",16,0.0,1.0,"[1, 3]",1.0,0.439475373421,3.0,49.0,6.0,1.0,,,,
60,,,1.0,p,2.0,2016_Mar_16_1643,b,ring,ilya4,index_ring,120.012751682,m,None,,,,,,"[1, 0, 1]",16,0.0,1.0,"[1, 3]",2.0,0.464383065291,7.0,50.0,6.0,2.0,,,,
61,,,1.0,g,1.0,2016_Mar_16_1643,b,ring,ilya4,index_ring,120.012751682,m,None,,,,,,"[1, 0, 1]",16,0.0,1.0,"[1, 3]",1.0,0.6394423503059999,3.0,51.0,6.0,3.0,,,,
62,,,1.0,g,1.0,2016_Mar_16_1643,i,index,ilya4,index_ring,120.012751682,m,None,,,,,,"[1, 0, 1]",16,0.0,1.0,"[1, 3]",1.0,0.364352034926,1.0,52.0,6.0,4.0,,,,
63,,,1.0,g,1.0,2016_Mar_16_1643,i,index,ilya4,index_ring,120.012751682,m,None,,,,,,"[1, 0, 1]",16,0.0,1.0,"[1, 3]",1.0,0.439418624677,1.0,53.0,6.0,5.0,,,,
64,,,1.0,g,1.0,2016_Mar_16_1643,b,ring,ilya4,index_ring,120.012751682,m,None,,,,,,"[1, 0, 1]",16,0.0,1.0,"[1, 3]",1.0,0.614414217006,3.0,54.0,6.0,6.0,,,,
65,,,1.0,p,2.0,2016_Mar_16_1643,i,index,ilya4,index_ring,120.012751682,m,None,,,,,,"[1, 0, 1]",16,0.0,1.0,"[1, 3]",2.0,0.639442048091,5.0,55.0,6.0,7.0,,,,
66,,,1.0,g,1.0,2016_Mar_16_1643,m,middle,ilya4,index_ring,120.012751682,m,None,,,,,,"[1, 0, 1]",16,0.0,1.0,"[1, 3]",1.0,0.41445659758500003,2.0,56.0,7.0,0.0,,,,
67,,,1.0,p,2.0,2016_Mar_16_1643,b,ring,ilya4,index_ring,120.012751682,m,None,,,,,,"[1, 0, 1]",16,0.0,1.0,"[1, 3]",2.0,0.439366403092,7.0,57.0,7.0,1.0,,,,
68,,,1.0,p,2.0,2016_Mar_16_1643,0,baseline,ilya4,index_ring,120.012751682,m,None,,,,,,"[1, 0, 1]",16,0.0,1.0,"[1, 3]",2.0,0.46436284115500004,4.0,58.0,7.0,2.0,,,,
69,,,1.0,g,1.0,2016_Mar_16_1643,0,baseline,ilya4,index_ring,120.012751682,m,None,,,,,,"[1, 0, 1]",16,0.0,1.0,"[1, 3]",1.0,0.38942997395999995,0.0,59.0,7.0,3.0,,,,
70,,,1.0,g,1.0,2016_Mar_16_1643,0,baseline,ilya4,index_ring,120.012751682,m,None,,,,,,"[1, 0, 1]",16,0.0,1.0,"[1, 3]",1.0,0.4143684558199999,0.0,60.0,7.0,4.0,,,,
71,,,1.0,p,2.0,2016_Mar_16_1643,m,middle,ilya4,index_ring,120.012751682,m,None,,,,,,"[1, 0, 1]",16,0.0,1.0,"[1, 3]",2.0,0.464391517509,6.0,61.0,7.0,5.0,,,,
72,,,1.0,g,1.0,2016_Mar_16_1643,m,middle,ilya4,index_ring,120.012751682,m,None,,,,,,"[1, 0, 1]",16,0.0,1.0,"[1, 3]",1.0,0.364306755885,2.0,62.0,7.0,6.0,,,,
73,,,1.0,p,2.0,2016_Mar_16_1643,m,middle,ilya4,index_ring,120.012751682,m,None,,,,,,"[1, 0, 1]",16,0.0,1.0,"[1, 3]",2.0,0.514392845854,6.0,63.0,7.0,7.0,,,,
74,,,1.0,p,2.0,2016_Mar_16_1643,i,index,ilya4,index_ring,120.012751682,m,None,,,,,,"[1, 0, 1]",16,0.0,1.0,"[1, 3]",2.0,0.51439133618,5.0,64.0,8.0,0.0,,,,
75,,,1.0,p,2.0,2016_Mar_16_1643,0,baseline,ilya4,index_ring,120.012751682,m,None,,,,,,"[1, 0, 1]",16,0.0,1.0,"[1, 3]",2.0,0.46441868465400005,4.0,65.0,8.0,1.0,,,,
76,,,1.0,p,2.0,2016_Mar_16_1643,0,baseline,ilya4,index_ring,120.012751682,m,None,,,,,,"[1, 0, 1]",16,0.0,1.0,"[1, 3]",2.0,0.48938040953100004,4.0,66.0,8.0,2.0,,,,
77,,,1.0,g,1.0,2016_Mar_16_1643,m,middle,ilya4,index_ring,120.012751682,m,None,,,,,,"[1, 0, 1]",16,0.0,1.0,"[1, 3]",1.0,0.414379020743,2.0,67.0,8.0,3.0,,,,
78,,,1.0,p,2.0,2016_Mar_16_1643,m,middle,ilya4,index_ring,120.012751682,m,None,,,,,,"[1, 0, 1]",16,0.0,1.0,"[1, 3]",2.0,0.33928858447800003,6.0,68.0,8.0,4.0,,,,
79,,,1.0,p,2.0,2016_Mar_16_1643,b,ring,ilya4,index_ring,120.012751682,m,None,,,,,,"[1, 0, 1]",16,0.0,1.0,"[1, 3]",2.0,0.539433053285,7.0,69.0,8.0,5.0,,,,
80,,,1.0,g,1.0,2016_Mar_16_1643,b,ring,ilya4,index_ring,120.012751682,m,None,,,,,,"[1, 0, 1]",16,0.0,1.0,"[1, 3]",1.0,0.539386265501,3.0,70.0,8.0,6.0,,,,
81,,,1.0,p,2.0,2016_Mar_16_1643,b,ring,ilya4,index_ring,120.012751682,m,None,,,,,,"[1, 0, 1]",16,0.0,1.0,"[1, 3]",2.0,0.46439061179799995,7.0,71.0,8.0,7.0,,,,
82,,,1.0,p,2.0,2016_Mar_16_1643,0,baseline,ilya4,index_ring,120.012751682,m,None,,,,,,"[1, 0, 1]",16,0.0,1.0,"[1, 3]",2.0,0.439427679926,4.0,72.0,9.0,0.0,,,,
83,,,1.0,g,1.0,2016_Mar_16_1643,m,middle,ilya4,index_ring,120.012751682,m,None,,,,,,"[1, 0, 0]",16,0.0,1.0,"[1, 3]",1.0,0.58931756258,2.0,73.0,9.0,1.0,,,,
84,,,0.0,g,1.0,2016_Mar_16_1643,i,index,ilya4,index_ring,120.012751682,m,None,,,,,,"[1, 0, 1]",16,0.0,1.0,"[1, 3]",2.0,-0.558243798967,1.0,74.0,9.0,2.0,,,,
85,,,1.0,g,1.0,2016_Mar_16_1643,m,middle,ilya4,index_ring,120.012751682,m,None,,,,,,"[1, 0, 1]",16,0.0,1.0,"[1, 3]",1.0,0.464380046874,2.0,75.0,9.0,3.0,,,,
86,,,1.0,p,2.0,2016_Mar_16_1643,i,index,ilya4,index_ring,120.012751682,m,None,,,,,,"[1, 0, 1]",16,0.0,1.0,"[1, 3]",2.0,0.489401841126,5.0,76.0,9.0,4.0,,,,
87,,,1.0,p,2.0,2016_Mar_16_1643,i,index,ilya4,index_ring,120.012751682,m,None,,,,,,"[1, 0, 1]",16,0.0,1.0,"[1, 3]",2.0,0.414420374725,5.0,77.0,9.0,5.0,,,,
88,,,1.0,g,1.0,2016_Mar_16_1643,b,ring,ilya4,index_ring,120.012751682,m,None,,,,,,"[1, 0, 1]",16,0.0,1.0,"[1, 3]",1.0,0.48945859033600003,3.0,78.0,9.0,6.0,,,,
89,,,1.0,g,1.0,2016_Mar_16_1643,i,index,ilya4,index_ring,120.012751682,m,None,,,,,,"[1, 0, 1]",16,0.0,1.0,"[1, 3]",1.0,0.414444221705,1.0,79.0,9.0,7.0,,,,
90,,,1.0,g,1.0,2016_Mar_16_1643,b,ring,ilya4,index_ring,120.012751682,m,None,,,,,,"[1, 0, 1]",16,0.0,1.0,"[1, 3]",1.0,0.489403350335,3.0,80.0,10.0,0.0,,,,
91,,,1.0,p,2.0,2016_Mar_16_1643,i,index,ilya4,index_ring,120.012751682,m,None,,,,,,"[1, 0, 1]",16,0.0,0.0,"[1, 3]",2.0,0.514380771257,5.0,81.0,10.0,1.0,,,,
92,,,1.0,g,1.0,2016_Mar_16_1643,m,middle,ilya4,index_ring,120.012751682,m,None,,,,,,"[1, 0, 1]",16,0.0,1.0,"[1, 3]",1.0,0.5643256526070001,2.0,82.0,10.0,2.0,,,,
93,,,1.0,p,2.0,2016_Mar_16_1643,i,index,ilya4,index_ring,120.012751682,m,None,,,,,,"[1, 0, 1]",16,0.0,1.0,"[1, 3]",2.0,0.46437189686999997,5.0,83.0,10.0,3.0,,,,
94,,,1.0,g,1.0,2016_Mar_16_1643,i,index,ilya4,index_ring,120.012751682,m,None,,,,,,"[1, 0, 1]",16,0.0,1.0,"[1, 3]",1.0,0.339408119731,1.0,84.0,10.0,4.0,,,,
95,,,1.0,p,2.0,2016_Mar_16_1643,b,ring,ilya4,index_ring,120.012751682,m,None,,,,,,"[1, 0, 1]",16,0.0,1.0,"[1, 3]",2.0,0.41442158265,7.0,85.0,10.0,5.0,,,,
96,,,1.0,g,1.0,2016_Mar_16_1643,m,middle,ilya4,index_ring,120.012751682,m,None,,,,,,"[1, 0, 1]",16,0.0,1.0,"[1, 3]",1.0,0.389409448076,2.0,86.0,10.0,6.0,,,,
97,,,1.0,g,1.0,2016_Mar_16_1643,i,index,ilya4,index_ring,120.012751682,m,None,,,,,,"[1, 0, 1]",16,0.0,1.0,"[1, 3]",1.0,0.389402505066,1.0,87.0,10.0,7.0,,,,
98,,,1.0,p,2.0,2016_Mar_16_1643,0,baseline,ilya4,index_ring,120.012751682,m,None,,,,,,"[1, 0, 1]",16,0.0,1.0,"[1, 3]",2.0,0.464363445118,4.0,88.0,11.0,0.0,,,,
99,,,1.0,p,2.0,2016_Mar_16_1643,m,middle,ilya4,index_ring,120.012751682,m,None,,,,,,"[1, 0, 1]",16,0.0,1.0,"[1, 3]",2.0,0.439432509765,6.0,89.0,11.0,1.0,,,,
100,,,1.0,g,1.0,2016_Mar_16_1643,0,baseline,ilya4,index_ring,120.012751682,m,None,,,,,,"[1, 0, 1]",16,0.0,1.0,"[1, 3]",1.0,0.33941204385799995,0.0,90.0,11.0,2.0,,,,
101,,,1.0,p,2.0,2016_Mar_16_1643,b,ring,ilya4,index_ring,120.012751682,m,None,,,,,,"[1, 0, 1]",16,0.0,1.0,"[1, 3]",2.0,0.41437388915600004,7.0,91.0,11.0,3.0,,,,
102,,,1.0,p,2.0,2016_Mar_16_1643,i,index,ilya4,index_ring,120.012751682,m,None,,,,,,"[1, 0, 1]",16,0.0,1.0,"[1, 3]",2.0,0.464377330672,5.0,92.0,11.0,4.0,,,,
103,,,1.0,g,1.0,2016_Mar_16_1643,m,middle,ilya4,index_ring,120.012751682,m,None,,,,,,"[1, 0, 1]",16,0.0,1.0,"[1, 3]",1.0,0.38942544633500004,2.0,93.0,11.0,5.0,,,,
104,,,1.0,p,2.0,2016_Mar_16_1643,b,ring,ilya4,index_ring,120.012751682,m,None,,,,,,"[1, 0, 1]",16,0.0,1.0,"[1, 3]",2.0,-0.5106126479249999,7.0,94.0,11.0,6.0,,,,
105,,,1.0,g,1.0,2016_Mar_16_1643,m,middle,ilya4,index_ring,120.012751682,m,None,,,,,,"[1, 0, 1]",16,0.0,1.0,"[1, 3]",1.0,0.539392000586,2.0,95.0,11.0,7.0,,,,
106,,,1.0,g,1.0,2016_Mar_16_1643,0,baseline,ilya4,index_ring,120.012751682,m,None,,,,,,"[1, 0, 1]",16,0.0,1.0,"[1, 3]",1.0,0.489460703041,0.0,96.0,12.0,0.0,,,,
107,,,1.0,p,2.0,2016_Mar_16_1643,i,index,ilya4,index_ring,120.012751682,m,None,,,,,,"[1, 0, 1]",16,0.0,1.0,"[1, 3]",2.0,0.43942677468099994,5.0,97.0,12.0,1.0,,,,
108,,,1.0,p,2.0,2016_Mar_16_1643,0,baseline,ilya4,index_ring,120.012751682,m,None,,,,,,"[1, 0, 1]",16,0.0,1.0,"[1, 3]",2.0,0.539452069961,4.0,98.0,12.0,2.0,,,,
109,,,1.0,p,2.0,2016_Mar_16_1643,0,baseline,ilya4,index_ring,120.012751682,m,None,,,,,,"[1, 0, 1]",16,0.0,1.0,"[1, 3]",2.0,0.43940202198899997,4.0,99.0,12.0,3.0,,,,
110,,,1.0,p,2.0,2016_Mar_16_1643,m,middle,ilya4,index_ring,120.012751682,m,None,,,,,,"[1, 0, 1]",16,0.0,1.0,"[1, 3]",2.0,0.48940697271399997,6.0,100.0,12.0,4.0,,,,
111,,,1.0,g,1.0,2016_Mar_16_1643,b,ring,ilya4,index_ring,120.012751682,m,None,,,,,,"[1, 0, 1]",16,0.0,1.0,"[1, 3]",1.0,0.539411621224,3.0,101.0,12.0,5.0,,,,
112,,,1.0,p,2.0,2016_Mar_16_1643,0,baseline,ilya4,index_ring,120.012751682,m,None,,,,,,"[1, 0, 1]",16,0.0,1.0,"[1, 3]",2.0,0.439458771199,4.0,102.0,12.0,6.0,,,,
113,,,1.0,p,2.0,2016_Mar_16_1643,0,baseline,ilya4,index_ring,120.012751682,m,None,,,,,,"[1, 0, 1]",16,0.0,1.0,"[1, 3]",2.0,0.43941258737800004,4.0,103.0,12.0,7.0,,,,
114,,,1.0,p,2.0,2016_Mar_16_1643,i,index,ilya4,index_ring,120.012751682,m,None,,,,,,"[1, 0, 1]",16,0.0,1.0,"[1, 3]",2.0,0.489406368751,5.0,104.0,13.0,0.0,,,,
115,,,1.0,g,1.0,2016_Mar_16_1643,0,baseline,ilya4,index_ring,120.012751682,m,None,,,,,,"[1, 0, 1]",16,0.0,1.0,"[1, 3]",1.0,0.539398339633,0.0,105.0,13.0,1.0,,,,
116,,,1.0,g,1.0,2016_Mar_16_1643,0,baseline,ilya4,index_ring,120.012751682,m,None,,,,,,"[1, 0, 1]",16,0.0,1.0,"[1, 3]",1.0,0.364345091917,0.0,106.0,13.0,2.0,,,,
117,,,1.0,g,1.0,2016_Mar_16_1643,b,ring,ilya4,index_ring,120.012751682,m,None,,,,,,"[1, 0, 1]",16,0.0,1.0,"[1, 3]",1.0,0.38941578665700005,3.0,107.0,13.0,3.0,,,,
118,,,1.0,g,1.0,2016_Mar_16_1643,i,index,ilya4,index_ring,120.012751682,m,None,,,,,,"[1, 0, 1]",16,0.0,1.0,"[1, 3]",1.0,0.514391638394,1.0,108.0,13.0,4.0,,,,
119,,,1.0,p,2.0,2016_Mar_16_1643,m,middle,ilya4,index_ring,120.012751682,m,None,,,,,,"[1, 0, 1]",16,0.0,1.0,"[1, 3]",2.0,0.514269386474,6.0,109.0,13.0,5.0,,,,
120,,,1.0,g,1.0,2016_Mar_16_1643,m,middle,ilya4,index_ring,120.012751682,m,None,,,,,,"[1, 0, 1]",16,0.0,1.0,"[1, 3]",1.0,0.439397192616,2.0,110.0,13.0,6.0,,,,
121,,,1.0,p,2.0,2016_Mar_16_1643,i,index,ilya4,index_ring,120.012751682,m,None,,,,,,"[1, 0, 1]",16,0.0,1.0,"[1, 3]",2.0,0.48937376827,5.0,111.0,13.0,7.0,,,,
122,,,1.0,p,2.0,2016_Mar_16_1643,i,index,ilya4,index_ring,120.012751682,m,None,,,,,,"[1, 0, 1]",16,0.0,1.0,"[1, 3]",2.0,0.464421099573,5.0,112.0,14.0,0.0,,,,
123,,,1.0,p,2.0,2016_Mar_16_1643,b,ring,ilya4,index_ring,120.012751682,m,None,,,,,,"[1, 0, 1]",16,0.0,1.0,"[1, 3]",2.0,0.489372561276,7.0,113.0,14.0,1.0,,,,
124,,,1.0,g,1.0,2016_Mar_16_1643,b,ring,ilya4,index_ring,120.012751682,m,None,,,,,,"[1, 0, 1]",16,0.0,1.0,"[1, 3]",1.0,0.5143391150609999,3.0,114.0,14.0,2.0,,,,
125,,,1.0,p,2.0,2016_Mar_16_1643,m,middle,ilya4,index_ring,120.012751682,m,None,,,,,,"[1, 0, 1]",16,0.0,1.0,"[1, 3]",2.0,0.5893269205089999,6.0,115.0,14.0,3.0,,,,
126,,,1.0,p,2.0,2016_Mar_16_1643,b,ring,ilya4,index_ring,120.012751682,m,None,,,,,,"[1, 0, 1]",16,0.0,1.0,"[1, 3]",2.0,0.5893812547999999,7.0,116.0,14.0,4.0,,,,
127,,,1.0,g,1.0,2016_Mar_16_1643,m,middle,ilya4,index_ring,120.012751682,m,None,,,,,,"[1, 0, 1]",16,0.0,1.0,"[1, 3]",1.0,0.6144036520830001,2.0,117.0,14.0,5.0,,,,
128,,,1.0,p,2.0,2016_Mar_16_1643,b,ring,ilya4,index_ring,120.012751682,m,None,,,,,,"[1, 0, 1]",16,0.0,1.0,"[1, 3]",2.0,0.514318588711,7.0,118.0,14.0,6.0,,,,
129,,,1.0,g,1.0,2016_Mar_16_1643,i,index,ilya4,index_ring,120.012751682,m,None,,,,,,"[1, 0, 1]",16,0.0,1.0,"[1, 3]",1.0,0.539354268517,1.0,119.0,14.0,7.0,,,,
0,,,,,,2016_Mar_16_1703,,,ilya4,,120.00231792,m,,,,,space,99.0076876823,,17,,,,,,,,,,,,,
1,,,0.0,g,1.0,2016_Mar_16_1703,0,baseline,ilya4,index_ring,120.00231792,m,,,,,,,"[1, 0, 1]",17,1.0,0.0,"[1, 3]",2.0,-0.557199375182,,,,,0.0,0.0,0.0,0.0
2,,,1.0,g,1.0,2016_Mar_16_1703,b,ring,ilya4,index_ring,120.00231792,m,,,,,,,"[1, 0, 1]",17,1.0,0.0,"[1, 3]",1.0,0.664638617132,,,,,3.0,1.0,0.0,1.0
3,,,1.0,p,2.0,2016_Mar_16_1703,i,index,ilya4,index_ring,120.00231792,m,,,,,,,"[1, 0, 1]",17,1.0,0.0,"[1, 3]",2.0,0.489687699415,,,,,5.0,2.0,0.0,2.0
4,,,1.0,p,2.0,2016_Mar_16_1703,0,baseline,ilya4,index_ring,120.00231792,m,,,,,,,"[1, 0, 1]",17,1.0,0.0,"[1, 3]",2.0,0.48954009130599996,,,,,4.0,3.0,0.0,3.0
5,,,1.0,g,1.0,2016_Mar_16_1703,m,middle,ilya4,index_ring,120.00231792,m,,,,,,,"[1, 0, 1]",17,1.0,0.0,"[1, 3]",1.0,0.539712874275,,,,,2.0,4.0,0.0,4.0
6,,,1.0,p,2.0,2016_Mar_16_1703,b,ring,ilya4,index_ring,120.00231792,m,,,,,,,"[1, 0, 1]",17,1.0,0.0,"[1, 3]",2.0,0.33966228278399996,,,,,7.0,5.0,0.0,5.0
7,,,1.0,g,1.0,2016_Mar_16_1703,i,index,ilya4,index_ring,120.00231792,m,,,,,,,"[1, 0, 1]",17,1.0,0.0,"[1, 3]",1.0,0.339652623571,,,,,1.0,6.0,0.0,6.0
8,,,1.0,p,2.0,2016_Mar_16_1703,m,middle,ilya4,index_ring,120.00231792,m,,,,,,,"[1, 0, 1]",17,1.0,0.0,"[1, 3]",2.0,0.414629863631,,,,,6.0,7.0,0.0,7.0
9,,,,,,2016_Mar_16_1703,,,ilya4,,120.00231792,m,,,space,11.0594458156,,,,17,,,,,,,,,,,,,
10,,,1.0,g,1.0,2016_Mar_16_1703,b,ring,ilya4,index_ring,120.00231792,m,space,6.46736508235,,,,,"[1, 0, 1]",17,0.0,1.0,"[1, 3]",1.0,0.44280454894500004,3.0,0.0,0.0,0.0,,,,
11,,,1.0,p,2.0,2016_Mar_16_1703,0,baseline,ilya4,index_ring,120.00231792,m,None,,,,,,"[1, 0, 1]",17,0.0,0.0,"[1, 3]",2.0,0.364102097284,4.0,1.0,0.0,1.0,,,,
12,,,0.0,g,1.0,2016_Mar_16_1703,m,middle,ilya4,index_ring,120.00231792,m,None,,,,,,"[1, 0, 1]",17,0.0,1.0,"[1, 3]",2.0,0.239400935415,2.0,2.0,0.0,2.0,,,,
13,,,1.0,g,1.0,2016_Mar_16_1703,b,ring,ilya4,index_ring,120.00231792,m,None,,,,,,"[1, 0, 1]",17,0.0,1.0,"[1, 3]",1.0,0.464423514493,3.0,3.0,0.0,3.0,,,,
14,,,1.0,g,1.0,2016_Mar_16_1703,i,index,ilya4,index_ring,120.00231792,m,None,,,,,,"[1, 0, 1]",17,0.0,1.0,"[1, 3]",1.0,0.464454605766,1.0,4.0,0.0,4.0,,,,
15,,,1.0,g,1.0,2016_Mar_16_1703,0,baseline,ilya4,index_ring,120.00231792,m,None,,,,,,"[1, 0, 1]",17,0.0,1.0,"[1, 3]",1.0,0.389445972685,0.0,5.0,0.0,5.0,,,,
16,,,0.0,p,2.0,2016_Mar_16_1703,i,index,ilya4,index_ring,120.00231792,m,None,,,,,,"[1, 0, 1]",17,0.0,1.0,"[1, 3]",1.0,0.38929142203199996,5.0,6.0,0.0,6.0,,,,
17,,,1.0,p,2.0,2016_Mar_16_1703,i,index,ilya4,index_ring,120.00231792,m,None,,,,,,"[1, 0, 1]",17,0.0,1.0,"[1, 3]",2.0,0.439459374696,5.0,7.0,0.0,7.0,,,,
18,,,1.0,g,1.0,2016_Mar_16_1703,i,index,ilya4,index_ring,120.00231792,m,None,,,,,,"[1, 0, 1]",17,0.0,1.0,"[1, 3]",1.0,0.389426653795,1.0,8.0,1.0,0.0,,,,
19,,,1.0,g,1.0,2016_Mar_16_1703,b,ring,ilya4,index_ring,120.00231792,m,None,,,,,,"[1, 0, 1]",17,0.0,1.0,"[1, 3]",1.0,0.764496986344,3.0,9.0,1.0,1.0,,,,
20,,,1.0,g,1.0,2016_Mar_16_1703,i,index,ilya4,index_ring,120.00231792,m,None,,,,,,"[1, 0, 1]",17,0.0,1.0,"[1, 3]",1.0,0.38940491998599996,1.0,10.0,1.0,2.0,,,,
21,,,1.0,g,1.0,2016_Mar_16_1703,b,ring,ilya4,index_ring,120.00231792,m,None,,,,,,"[1, 0, 1]",17,0.0,1.0,"[1, 3]",1.0,0.36442931001999995,3.0,11.0,1.0,3.0,,,,
22,,,1.0,g,1.0,2016_Mar_16_1703,i,index,ilya4,index_ring,120.00231792,m,None,,,,,,"[1, 0, 1]",17,0.0,1.0,"[1, 3]",1.0,0.38942001299900003,1.0,12.0,1.0,4.0,,,,
23,,,1.0,p,2.0,2016_Mar_16_1703,i,index,ilya4,index_ring,120.00231792,m,None,,,,,,"[1, 0, 0]",17,0.0,1.0,"[1, 3]",2.0,0.48941542446599995,5.0,13.0,1.0,5.0,,,,
24,,,0.0,g,1.0,2016_Mar_16_1703,0,baseline,ilya4,index_ring,120.00231792,m,None,,,,,,"[1, 0, 1]",17,0.0,1.0,"[1, 3]",2.0,-0.558319564387,0.0,14.0,1.0,6.0,,,,
25,,,1.0,p,2.0,2016_Mar_16_1703,m,middle,ilya4,index_ring,120.00231792,m,None,,,,,,"[1, 0, 1]",17,0.0,1.0,"[1, 3]",2.0,0.38936326379,6.0,15.0,1.0,7.0,,,,
26,,,1.0,g,1.0,2016_Mar_16_1703,0,baseline,ilya4,index_ring,120.00231792,m,None,,,,,,"[1, 0, 1]",17,0.0,1.0,"[1, 3]",1.0,0.439408361502,0.0,16.0,2.0,0.0,,,,
27,,,0.0,g,1.0,2016_Mar_16_1703,0,baseline,ilya4,index_ring,120.00231792,m,None,,,,,,"[1, 0, 1]",17,0.0,1.0,"[1, 3]",2.0,0.339366765749,0.0,17.0,2.0,1.0,,,,
28,,,1.0,p,2.0,2016_Mar_16_1703,0,baseline,ilya4,index_ring,120.00231792,m,None,,,,,,"[1, 0, 1]",17,0.0,1.0,"[1, 3]",2.0,0.38943389855300004,4.0,18.0,2.0,2.0,,,,
29,,,1.0,g,1.0,2016_Mar_16_1703,m,middle,ilya4,index_ring,120.00231792,m,None,,,,,,"[1, 0, 1]",17,0.0,1.0,"[1, 3]",1.0,0.389357830454,2.0,19.0,2.0,3.0,,,,
30,,,1.0,p,2.0,2016_Mar_16_1703,0,baseline,ilya4,index_ring,120.00231792,m,None,,,,,,"[1, 0, 1]",17,0.0,1.0,"[1, 3]",2.0,0.31442134087900003,4.0,20.0,2.0,4.0,,,,
31,,,1.0,p,2.0,2016_Mar_16_1703,m,middle,ilya4,index_ring,120.00231792,m,None,,,,,,"[1, 0, 1]",17,0.0,1.0,"[1, 3]",2.0,0.439343160074,6.0,21.0,2.0,5.0,,,,
32,,,1.0,g,1.0,2016_Mar_16_1703,0,baseline,ilya4,index_ring,120.00231792,m,None,,,,,,"[1, 0, 1]",17,0.0,1.0,"[1, 3]",1.0,0.43944971548399997,0.0,22.0,2.0,6.0,,,,
33,,,1.0,g,1.0,2016_Mar_16_1703,i,index,ilya4,index_ring,120.00231792,m,None,,,,,,"[1, 0, 1]",17,0.0,1.0,"[1, 3]",1.0,0.389414880946,1.0,23.0,2.0,7.0,,,,
34,,,1.0,p,2.0,2016_Mar_16_1703,b,ring,ilya4,index_ring,120.00231792,m,None,,,,,,"[1, 0, 1]",17,0.0,1.0,"[1, 3]",2.0,0.46441053465000004,7.0,24.0,3.0,0.0,,,,
35,,,1.0,g,1.0,2016_Mar_16_1703,0,baseline,ilya4,index_ring,120.00231792,m,None,,,,,,"[1, 0, 1]",17,0.0,1.0,"[1, 3]",1.0,0.46439604513300003,0.0,25.0,3.0,1.0,,,,
36,,,0.0,p,2.0,2016_Mar_16_1703,0,baseline,ilya4,index_ring,120.00231792,m,None,,,,,,"[1, 0, 1]",17,0.0,1.0,"[1, 3]",1.0,0.38931949488799994,4.0,26.0,3.0,2.0,,,,
37,,,0.0,g,1.0,2016_Mar_16_1703,b,ring,ilya4,index_ring,120.00231792,m,None,,,,,,"[1, 0, 1]",17,0.0,1.0,"[1, 3]",2.0,-0.0106814717315,3.0,27.0,3.0,3.0,,,,
38,,,1.0,p,2.0,2016_Mar_16_1703,0,baseline,ilya4,index_ring,120.00231792,m,None,,,,,,"[1, 0, 1]",17,0.0,1.0,"[1, 3]",2.0,0.46439363068000006,4.0,28.0,3.0,4.0,,,,
39,,,1.0,p,2.0,2016_Mar_16_1703,m,middle,ilya4,index_ring,120.00231792,m,None,,,,,,"[1, 0, 1]",17,0.0,1.0,"[1, 3]",2.0,0.789464445841,6.0,29.0,3.0,5.0,,,,
40,,,1.0,p,2.0,2016_Mar_16_1703,m,middle,ilya4,index_ring,120.00231792,m,None,,,,,,"[1, 0, 1]",17,0.0,1.0,"[1, 3]",2.0,0.489441082403,6.0,30.0,3.0,6.0,,,,
41,,,1.0,p,2.0,2016_Mar_16_1703,m,middle,ilya4,index_ring,120.00231792,m,None,,,,,,"[1, 0, 1]",17,0.0,1.0,"[1, 3]",2.0,0.514387412518,6.0,31.0,3.0,7.0,,,,
42,,,1.0,p,2.0,2016_Mar_16_1703,b,ring,ilya4,index_ring,120.00231792,m,None,,,,,,"[1, 0, 1]",17,0.0,1.0,"[1, 3]",2.0,0.36441240604999997,7.0,32.0,4.0,0.0,,,,
43,,,1.0,p,2.0,2016_Mar_16_1703,i,index,ilya4,index_ring,120.00231792,m,None,,,,,,"[1, 0, 1]",17,0.0,1.0,"[1, 3]",2.0,0.414416149314,5.0,33.0,4.0,1.0,,,,
44,,,1.0,g,1.0,2016_Mar_16_1703,m,middle,ilya4,index_ring,120.00231792,m,None,,,,,,"[1, 0, 1]",17,0.0,1.0,"[1, 3]",1.0,0.38939375156499995,2.0,34.0,4.0,2.0,,,,
45,,,1.0,p,2.0,2016_Mar_16_1703,b,ring,ilya4,index_ring,120.00231792,m,None,,,,,,"[1, 0, 1]",17,0.0,1.0,"[1, 3]",2.0,0.389423031416,7.0,35.0,4.0,3.0,,,,
46,,,1.0,g,1.0,2016_Mar_16_1703,i,index,ilya4,index_ring,120.00231792,m,None,,,,,,"[1, 0, 1]",17,0.0,1.0,"[1, 3]",1.0,0.5644340189729999,1.0,36.0,4.0,4.0,,,,
47,,,1.0,p,2.0,2016_Mar_16_1703,0,baseline,ilya4,index_ring,120.00231792,m,None,,,,,,"[1, 0, 1]",17,0.0,1.0,"[1, 3]",2.0,0.51439707173,4.0,37.0,4.0,5.0,,,,
48,,,1.0,g,1.0,2016_Mar_16_1703,0,baseline,ilya4,index_ring,120.00231792,m,None,,,,,,"[1, 0, 1]",17,0.0,1.0,"[1, 3]",1.0,0.539400754552,0.0,38.0,4.0,6.0,,,,
49,,,1.0,p,2.0,2016_Mar_16_1703,0,baseline,ilya4,index_ring,120.00231792,m,None,,,,,,"[1, 0, 1]",17,0.0,1.0,"[1, 3]",2.0,0.48943353589599997,4.0,39.0,4.0,7.0,,,,
50,,,1.0,g,1.0,2016_Mar_16_1703,i,index,ilya4,index_ring,120.00231792,m,None,,,,,,"[1, 0, 1]",17,0.0,1.0,"[1, 3]",1.0,0.539408904556,1.0,40.0,5.0,0.0,,,,
51,,,0.0,g,1.0,2016_Mar_16_1703,b,ring,ilya4,index_ring,120.00231792,m,None,,,,,,"[1, 0, 1]",17,0.0,0.0,"[1, 3]",2.0,0.7144111381470001,3.0,41.0,5.0,1.0,,,,
52,,,1.0,g,1.0,2016_Mar_16_1703,b,ring,ilya4,index_ring,120.00231792,m,None,,,,,,"[1, 0, 1]",17,0.0,1.0,"[1, 3]",1.0,0.514400090147,3.0,42.0,5.0,2.0,,,,
53,,,1.0,g,1.0,2016_Mar_16_1703,m,middle,ilya4,index_ring,120.00231792,m,None,,,,,,"[1, 0, 1]",17,0.0,1.0,"[1, 3]",1.0,0.41443546773900003,2.0,43.0,5.0,3.0,,,,
54,,,1.0,g,1.0,2016_Mar_16_1703,b,ring,ilya4,index_ring,120.00231792,m,None,,,,,,"[1, 0, 1]",17,0.0,1.0,"[1, 3]",1.0,0.414432147574,3.0,44.0,5.0,4.0,,,,
55,,,1.0,p,2.0,2016_Mar_16_1703,m,middle,ilya4,index_ring,120.00231792,m,None,,,,,,"[1, 0, 1]",17,0.0,1.0,"[1, 3]",2.0,0.539399245344,6.0,45.0,5.0,5.0,,,,
56,,,1.0,g,1.0,2016_Mar_16_1703,b,ring,ilya4,index_ring,120.00231792,m,None,,,,,,"[1, 0, 1]",17,0.0,1.0,"[1, 3]",1.0,0.664379322957,3.0,46.0,5.0,6.0,,,,
57,,,0.0,p,2.0,2016_Mar_16_1703,i,index,ilya4,index_ring,120.00231792,m,None,,,,,,"[1, 0, 1]",17,0.0,1.0,"[1, 3]",1.0,0.46438065083700003,5.0,47.0,5.0,7.0,,,,
58,,,0.0,p,2.0,2016_Mar_16_1703,i,index,ilya4,index_ring,120.00231792,m,None,,,,,,"[1, 0, 1]",17,0.0,1.0,"[1, 3]",1.0,0.539348231219,5.0,48.0,6.0,0.0,,,,
59,,,1.0,g,1.0,2016_Mar_16_1703,0,baseline,ilya4,index_ring,120.00231792,m,None,,,,,,"[1, 0, 1]",17,0.0,1.0,"[1, 3]",1.0,0.489374070019,0.0,49.0,6.0,1.0,,,,
60,,,1.0,g,1.0,2016_Mar_16_1703,b,ring,ilya4,index_ring,120.00231792,m,None,,,,,,"[1, 0, 1]",17,0.0,1.0,"[1, 3]",1.0,0.56440655008,3.0,50.0,6.0,2.0,,,,
61,,,1.0,g,1.0,2016_Mar_16_1703,m,middle,ilya4,index_ring,120.00231792,m,None,,,,,,"[1, 0, 1]",17,0.0,1.0,"[1, 3]",1.0,0.464342918769,2.0,51.0,6.0,3.0,,,,
62,,,1.0,p,2.0,2016_Mar_16_1703,0,baseline,ilya4,index_ring,120.00231792,m,None,,,,,,"[1, 0, 1]",17,0.0,1.0,"[1, 3]",2.0,0.564402323738,4.0,52.0,6.0,4.0,,,,
63,,,1.0,p,2.0,2016_Mar_16_1703,b,ring,ilya4,index_ring,120.00231792,m,None,,,,,,"[1, 0, 1]",17,0.0,1.0,"[1, 3]",2.0,0.5394759169409999,7.0,53.0,6.0,5.0,,,,
64,,,1.0,g,1.0,2016_Mar_16_1703,m,middle,ilya4,index_ring,120.00231792,m,None,,,,,,"[1, 0, 1]",17,0.0,1.0,"[1, 3]",1.0,0.389447481893,2.0,54.0,6.0,6.0,,,,
65,,,1.0,p,2.0,2016_Mar_16_1703,m,middle,ilya4,index_ring,120.00231792,m,None,,,,,,"[1, 0, 1]",17,0.0,1.0,"[1, 3]",2.0,0.489451345578,6.0,55.0,6.0,7.0,,,,
66,,,1.0,p,2.0,2016_Mar_16_1703,0,baseline,ilya4,index_ring,120.00231792,m,None,,,,,,"[1, 0, 1]",17,0.0,1.0,"[1, 3]",2.0,0.414464446306,4.0,56.0,7.0,0.0,,,,
67,,,1.0,g,1.0,2016_Mar_16_1703,0,baseline,ilya4,index_ring,120.00231792,m,None,,,,,,"[1, 0, 1]",17,0.0,1.0,"[1, 3]",1.0,0.414424299318,0.0,57.0,7.0,1.0,,,,
68,,,1.0,g,1.0,2016_Mar_16_1703,m,middle,ilya4,index_ring,120.00231792,m,None,,,,,,"[1, 0, 1]",17,0.0,1.0,"[1, 3]",1.0,0.414440297578,2.0,58.0,7.0,2.0,,,,
69,,,1.0,g,1.0,2016_Mar_16_1703,0,baseline,ilya4,index_ring,120.00231792,m,None,,,,,,"[1, 0, 1]",17,0.0,1.0,"[1, 3]",1.0,0.43941711500299996,0.0,59.0,7.0,3.0,,,,
70,,,1.0,g,1.0,2016_Mar_16_1703,0,baseline,ilya4,index_ring,120.00231792,m,None,,,,,,"[1, 0, 1]",17,0.0,1.0,"[1, 3]",1.0,0.46442804211800004,0.0,60.0,7.0,4.0,,,,
71,,,1.0,p,2.0,2016_Mar_16_1703,i,index,ilya4,index_ring,120.00231792,m,None,,,,,,"[1, 0, 1]",17,0.0,1.0,"[1, 3]",2.0,0.73937256081,5.0,61.0,7.0,5.0,,,,
72,,,1.0,p,2.0,2016_Mar_16_1703,b,ring,ilya4,index_ring,120.00231792,m,None,,,,,,"[1, 0, 1]",17,0.0,1.0,"[1, 3]",2.0,0.439436735641,7.0,62.0,7.0,6.0,,,,
73,,,1.0,p,2.0,2016_Mar_16_1703,i,index,ilya4,index_ring,120.00231792,m,None,,,,,,"[1, 0, 1]",17,0.0,1.0,"[1, 3]",2.0,0.41440377296899994,5.0,63.0,7.0,7.0,,,,
74,,,1.0,g,1.0,2016_Mar_16_1703,0,baseline,ilya4,index_ring,120.00231792,m,None,,,,,,"[1, 0, 1]",17,0.0,1.0,"[1, 3]",1.0,0.514388619978,0.0,64.0,8.0,0.0,,,,
75,,,1.0,p,2.0,2016_Mar_16_1703,b,ring,ilya4,index_ring,120.00231792,m,None,,,,,,"[1, 0, 1]",17,0.0,1.0,"[1, 3]",2.0,0.414399547093,7.0,65.0,8.0,1.0,,,,
76,,,1.0,g,1.0,2016_Mar_16_1703,i,index,ilya4,index_ring,120.00231792,m,None,,,,,,"[1, 0, 1]",17,0.0,1.0,"[1, 3]",1.0,0.514391034432,1.0,66.0,8.0,2.0,,,,
77,,,1.0,g,1.0,2016_Mar_16_1703,b,ring,ilya4,index_ring,120.00231792,m,None,,,,,,"[1, 0, 1]",17,0.0,1.0,"[1, 3]",1.0,0.7144355886239999,3.0,67.0,8.0,3.0,,,,
78,,,1.0,p,2.0,2016_Mar_16_1703,0,baseline,ilya4,index_ring,120.00231792,m,None,,,,,,"[1, 0, 1]",17,0.0,1.0,"[1, 3]",2.0,0.364314604606,4.0,68.0,8.0,4.0,,,,
79,,,1.0,p,2.0,2016_Mar_16_1703,i,index,ilya4,index_ring,120.00231792,m,None,,,,,,"[1, 0, 1]",17,0.0,1.0,"[1, 3]",2.0,0.339337183218,5.0,69.0,8.0,5.0,,,,
80,,,1.0,p,2.0,2016_Mar_16_1703,m,middle,ilya4,index_ring,120.00231792,m,None,,,,,,"[1, 0, 1]",17,0.0,1.0,"[1, 3]",2.0,0.389406429194,6.0,70.0,8.0,6.0,,,,
81,,,1.0,p,2.0,2016_Mar_16_1703,b,ring,ilya4,index_ring,120.00231792,m,None,,,,,,"[1, 0, 1]",17,0.0,1.0,"[1, 3]",2.0,0.41440467868,7.0,71.0,8.0,7.0,,,,
82,,,0.0,g,1.0,2016_Mar_16_1703,0,baseline,ilya4,index_ring,120.00231792,m,None,,,,,,"[1, 0, 1]",17,0.0,1.0,"[1, 3]",2.0,0.6394037129919999,0.0,72.0,9.0,0.0,,,,
83,,,1.0,p,2.0,2016_Mar_16_1703,i,index,ilya4,index_ring,120.00231792,m,None,,,,,,"[1, 0, 1]",17,0.0,1.0,"[1, 3]",2.0,0.539364833441,5.0,73.0,9.0,1.0,,,,
84,,,1.0,g,1.0,2016_Mar_16_1703,m,middle,ilya4,index_ring,120.00231792,m,None,,,,,,"[1, 0, 1]",17,0.0,1.0,"[1, 3]",1.0,0.439311465304,2.0,74.0,9.0,2.0,,,,
85,,,1.0,p,2.0,2016_Mar_16_1703,m,middle,ilya4,index_ring,120.00231792,m,None,,,,,,"[1, 0, 1]",17,0.0,1.0,"[1, 3]",2.0,0.389346359819,6.0,75.0,9.0,3.0,,,,
86,,,1.0,g,1.0,2016_Mar_16_1703,b,ring,ilya4,index_ring,120.00231792,m,None,,,,,,"[1, 0, 1]",17,0.0,1.0,"[1, 3]",1.0,0.564370025471,3.0,76.0,9.0,4.0,,,,
87,,,1.0,g,1.0,2016_Mar_16_1703,b,ring,ilya4,index_ring,120.00231792,m,None,,,,,,"[1, 0, 1]",17,0.0,1.0,"[1, 3]",1.0,0.539382643122,3.0,77.0,9.0,5.0,,,,
88,,,1.0,p,2.0,2016_Mar_16_1703,b,ring,ilya4,index_ring,120.00231792,m,None,,,,,,"[1, 0, 1]",17,0.0,1.0,"[1, 3]",2.0,0.364403350335,7.0,78.0,9.0,6.0,,,,
89,,,1.0,p,2.0,2016_Mar_16_1703,m,middle,ilya4,index_ring,120.00231792,m,None,,,,,,"[1, 0, 1]",17,0.0,1.0,"[1, 3]",2.0,0.589395743385,6.0,79.0,9.0,7.0,,,,
90,,,1.0,g,1.0,2016_Mar_16_1703,i,index,ilya4,index_ring,120.00231792,m,None,,,,,,"[1, 0, 1]",17,0.0,1.0,"[1, 3]",1.0,0.439344065785,1.0,80.0,10.0,0.0,,,,
91,,,1.0,p,2.0,2016_Mar_16_1703,i,index,ilya4,index_ring,120.00231792,m,None,,,,,,"[1, 0, 1]",17,0.0,0.0,"[1, 3]",2.0,0.489403652083,5.0,81.0,10.0,1.0,,,,
92,,,0.0,p,2.0,2016_Mar_16_1703,b,ring,ilya4,index_ring,120.00231792,m,None,,,,,,"[1, 0, 1]",17,0.0,1.0,"[1, 3]",1.0,0.489420556519,7.0,82.0,10.0,2.0,,,,
93,,,1.0,g,1.0,2016_Mar_16_1703,i,index,ilya4,index_ring,120.00231792,m,None,,,,,,"[1, 0, 1]",17,0.0,1.0,"[1, 3]",1.0,0.539427619949,1.0,83.0,10.0,3.0,,,,
94,,,1.0,g,1.0,2016_Mar_16_1703,m,middle,ilya4,index_ring,120.00231792,m,None,,,,,,"[1, 0, 1]",17,0.0,1.0,"[1, 3]",1.0,0.414344307091,2.0,84.0,10.0,4.0,,,,
95,,,1.0,g,1.0,2016_Mar_16_1703,i,index,ilya4,index_ring,120.00231792,m,None,,,,,,"[1, 0, 1]",17,0.0,1.0,"[1, 3]",1.0,0.589441927671,1.0,85.0,10.0,5.0,,,,
96,,,1.0,g,1.0,2016_Mar_16_1703,m,middle,ilya4,index_ring,120.00231792,m,None,,,,,,"[1, 0, 1]",17,0.0,1.0,"[1, 3]",1.0,0.589368878454,2.0,86.0,10.0,6.0,,,,
97,,,0.0,g,1.0,2016_Mar_16_1703,0,baseline,ilya4,index_ring,120.00231792,m,None,,,,,,"[1, 0, 1]",17,0.0,1.0,"[1, 3]",2.0,0.489442591611,0.0,87.0,10.0,7.0,,,,
98,,,1.0,g,1.0,2016_Mar_16_1703,m,middle,ilya4,index_ring,120.00231792,m,None,,,,,,"[1, 0, 1]",17,0.0,1.0,"[1, 3]",1.0,0.43943733913800004,2.0,88.0,11.0,0.0,,,,
99,,,1.0,g,1.0,2016_Mar_16_1703,i,index,ilya4,index_ring,120.00231792,m,None,,,,,,"[1, 0, 1]",17,0.0,1.0,"[1, 3]",1.0,0.564426472932,1.0,89.0,11.0,1.0,,,,
100,,,1.0,p,2.0,2016_Mar_16_1703,i,index,ilya4,index_ring,120.00231792,m,None,,,,,,"[1, 0, 1]",17,0.0,1.0,"[1, 3]",2.0,0.689419831671,5.0,90.0,11.0,2.0,,,,
101,,,1.0,g,1.0,2016_Mar_16_1703,m,middle,ilya4,index_ring,120.00231792,m,None,,,,,,"[1, 0, 1]",17,0.0,1.0,"[1, 3]",1.0,0.514418201577,2.0,91.0,11.0,3.0,,,,
102,,,1.0,p,2.0,2016_Mar_16_1703,b,ring,ilya4,index_ring,120.00231792,m,None,,,,,,"[1, 0, 1]",17,0.0,1.0,"[1, 3]",2.0,0.414436675198,7.0,92.0,11.0,4.0,,,,
103,,,1.0,p,2.0,2016_Mar_16_1703,i,index,ilya4,index_ring,120.00231792,m,None,,,,,,"[1, 0, 1]",17,0.0,1.0,"[1, 3]",2.0,0.514387714267,5.0,93.0,11.0,5.0,,,,
104,,,1.0,g,1.0,2016_Mar_16_1703,i,index,ilya4,index_ring,120.00231792,m,None,,,,,,"[1, 0, 1]",17,0.0,1.0,"[1, 3]",1.0,0.464398762267,1.0,94.0,11.0,6.0,,,,
105,,,1.0,p,2.0,2016_Mar_16_1703,m,middle,ilya4,index_ring,120.00231792,m,None,,,,,,"[1, 0, 1]",17,0.0,1.0,"[1, 3]",2.0,0.48942568764100003,6.0,95.0,11.0,7.0,,,,
106,,,1.0,p,2.0,2016_Mar_16_1703,b,ring,ilya4,index_ring,120.00231792,m,None,,,,,,"[1, 0, 1]",17,0.0,1.0,"[1, 3]",2.0,0.439349499121,7.0,96.0,12.0,0.0,,,,
107,,,1.0,g,1.0,2016_Mar_16_1703,i,index,ilya4,index_ring,120.00231792,m,None,,,,,,"[1, 0, 1]",17,0.0,1.0,"[1, 3]",1.0,0.36438735207500006,1.0,97.0,12.0,1.0,,,,
108,,,1.0,p,2.0,2016_Mar_16_1703,m,middle,ilya4,index_ring,120.00231792,m,None,,,,,,"[1, 0, 1]",17,0.0,1.0,"[1, 3]",2.0,0.539408301059,6.0,98.0,12.0,2.0,,,,
109,,,1.0,p,2.0,2016_Mar_16_1703,m,middle,ilya4,index_ring,120.00231792,m,None,,,,,,"[1, 0, 1]",17,0.0,1.0,"[1, 3]",2.0,0.439383307062,6.0,99.0,12.0,3.0,,,,
110,,,1.0,p,2.0,2016_Mar_16_1703,m,middle,ilya4,index_ring,120.00231792,m,None,,,,,,"[1, 0, 1]",17,0.0,1.0,"[1, 3]",2.0,0.43939960707,6.0,100.0,12.0,4.0,,,,
111,,,0.0,g,1.0,2016_Mar_16_1703,b,ring,ilya4,index_ring,120.00231792,m,None,,,,,,"[1, 0, 1]",17,0.0,1.0,"[1, 3]",2.0,0.41440165979800003,3.0,101.0,12.0,5.0,,,,
